File: RAMAN/Raman_Ilum/HCS_MoS2_NS_Sodio.txt
3495.35	2350.42
3492.81	2742.11
3490.26	3021.26
3487.71	3164.84
3485.17	3306.42
3482.62	3416.84
3480.06	3502.68
3477.51	3597.68
3474.96	3699.68
3472.4	3808.05
3469.85	3950.37
3467.29	4102.53
3464.73	4279.53
3462.17	4413.74
3459.61	4617.58
3457.04	4807.1
3454.48	4964.53
3451.91	5131.53
3449.35	5276.58
3446.78	5457.53
3444.21	5581.05
3441.64	5688.47
3439.07	5815.63
3436.49	5916.47
3433.92	6011.68
3431.34	6117.63
3428.76	6240.42
3426.18	6301.74
3423.6	6410
3421.02	6460.16
3418.44	6594.21
3415.85	6657.89
3413.27	6779.84
3410.68	6891.74
3408.09	7023.89
3405.5	7187.42
3402.91	7277.74
3400.32	7458.74
3397.72	7572.58
3395.13	7739.63
3392.53	7842.95
3389.93	7959.05
3387.33	8049
3384.73	8167.26
3382.13	8246.11
3379.53	8313.26
3376.92	8384.42
3374.32	8466.1
3371.71	8555.84
3369.1	8627.16
3366.49	8666
3363.88	8734.74
3361.26	8836.47
3358.65	8921.63
3356.03	9029.95
3353.42	9111.84
3350.8	9276.58
3348.18	9391.58
3345.56	9558.42
3342.93	9649.89
3340.31	9793.42
3337.69	9909.84
3335.06	10056.4
3332.43	10192
3329.8	10254.7
3327.17	10309.5
3324.54	10445.3
3321.91	10472.7
3319.27	10534
3316.63	10531.5
3314	10611.5
3311.36	10675.7
3308.72	10684.9
3306.08	10790.5
3303.43	10908.2
3300.79	11099.2
3298.14	11305.5
3295.5	11576.1
3292.85	11945.1
3290.2	12479.7
3287.55	13026.1
3284.89	13746.3
3282.24	14559.3
3279.58	15491.4
3276.93	16584.3
3274.27	17690.7
3271.61	18895.2
3268.95	20116.3
3266.29	21386.4
3263.62	22553.4
3260.96	23695.8
3258.29	24645.1
3255.62	25449.2
3252.95	26136.3
3250.28	26727.7
3247.61	27267.1
3244.94	27601.6
3242.26	27990
3239.59	28204.3
3236.91	28448.8
3234.23	28651.8
3231.55	28893.8
3228.87	29114.5
3226.19	29190.7
3223.5	29414.6
3220.82	29596.5
3218.13	29775.7
3215.44	30048
3212.75	30262.3
3210.06	30568.3
3207.37	30881.7
3204.67	31283
3201.98	31579.7
3199.28	32055.4
3196.58	32467.1
3193.88	32825.3
3191.18	33261.4
3188.48	33686.7
3185.78	34014.8
3183.07	34367.4
3180.36	34709.9
3177.66	35157.4
3174.95	35483.4
3172.24	35874.5
3169.52	36238.6
3166.81	36662.6
3164.1	37097.8
3161.38	37476
3158.66	37965.7
3155.94	38476.3
3153.22	38993.8
3150.5	39328.3
3147.78	39864.1
3145.05	40239.9
3142.32	40671.7
3139.6	41007.8
3136.87	41294.7
3134.14	41500.2
3131.41	41704.9
3128.67	41924.4
3125.94	42153.5
3123.2	42360.8
3120.47	42582.5
3117.73	42851.2
3114.99	43025.1
3112.24	43255.6
3109.5	43592
3106.76	43688.3
3104.01	43821.8
3101.26	43963.1
3098.51	44209.3
3095.76	44479.9
3093.01	44697.7
3090.26	44865.2
3087.5	45089.7
3084.75	45368.1
3081.99	45759.1
3079.23	46076.5
3076.47	46269.3
3073.71	46568.6
3070.95	46585.6
3068.18	46788.3
3065.42	46696.3
3062.65	46738.7
3059.88	46797
3057.11	46753
3054.34	46801.7
3051.57	46864.1
3048.8	46911.9
3046.02	47158.1
3043.24	47298.1
3040.46	47356.9
3037.68	47707.1
3034.9	47884.1
3032.12	48124.7
3029.34	48345.3
3026.55	48639.8
3023.76	48946.7
3020.97	49293.6
3018.18	49564.8
3015.39	50011.5
3012.6	50361
3009.81	50705.7
3007.01	51008.4
3004.21	51416.6
3001.41	51701.5
2998.61	52101.5
2995.81	52440.6
2993.01	52824.9
2990.21	52962.2
2987.4	53174
2984.59	53391.5
2981.78	53613.3
2978.97	53847.3
2976.16	54017.1
2973.35	54173.8
2970.54	54302.1
2967.72	54651.4
2964.9	54754.5
2962.08	54838.4
2959.26	55051.3
2956.44	55183
2953.62	55490
2950.8	55437.1
2947.97	55500.1
2945.14	55545.5
2942.31	55655.7
2939.48	55810.2
2936.65	55826
2933.82	55988.4
2930.98	56187.6
2928.15	56282.5
2925.31	56440.4
2922.47	56520.9
2919.63	56654
2916.79	56832.8
2913.95	56901.2
2911.1	57074.1
2908.26	57071.2
2905.41	57282.5
2902.56	57613.6
2899.71	57679.4
2896.86	57850.6
2894	57953.4
2891.15	57923.6
2888.29	58042.9
2885.44	58121.9
2882.58	58355.8
2879.72	58446.9
2876.85	58589.2
2873.99	58762.4
2871.12	58599.8
2868.26	58555.1
2865.39	58425.6
2862.52	58322.5
2859.65	58372.3
2856.78	58473.3
2853.9	58312.3
2851.03	58205.9
2848.15	58065.7
2845.27	57975.6
2842.39	57692.9
2839.51	57595.4
2836.63	57627.7
2833.75	57615.3
2830.86	57448.5
2827.97	57375.4
2825.09	57441.7
2822.2	57332.6
2819.3	57333.8
2816.41	57366.9
2813.52	57331.1
2810.62	57424.4
2807.72	57368.2
2804.82	57513.8
2801.92	57539.2
2799.02	57719.4
2796.12	57791.2
2793.22	57823
2790.31	57941.1
2787.4	58035.3
2784.49	58166.2
2781.58	58072.3
2778.67	58119.7
2775.76	57981.7
2772.84	57932.1
2769.92	57697.7
2767.01	57604.4
2764.09	57572.6
2761.17	57304.5
2758.24	57208.9
2755.32	57042
2752.39	56870.6
2749.47	56792.2
2746.54	56900.6
2743.61	56775
2740.68	56607.2
2737.75	56622.8
2734.81	56528.5
2731.88	56603.5
2728.94	56576.9
2726	56464.7
2723.06	56247.6
2720.12	55765.5
2717.17	55711.6
2714.23	55477.8
2711.28	55348.8
2708.34	55072.5
2705.39	54998.1
2702.44	54758.2
2699.48	54661.5
2696.53	54651.3
2693.58	54407.4
2690.62	54375.7
2687.66	54297.7
2684.7	54065.9
2681.74	53960.9
2678.78	53965.4
2675.81	53824.9
2672.85	53712.6
2669.88	53408.4
2666.91	53292.6
2663.94	52982.3
2660.97	52908.2
2658	52895.6
2655.02	52936.2
2652.05	52886.9
2649.07	52688.9
2646.09	52471.4
2643.11	52376.5
2640.13	52259.1
2637.14	52014.2
2634.16	51717.2
2631.17	51490.9
2628.18	51407.1
2625.19	51194.3
2622.2	51179.5
2619.21	50884.8
2616.21	50660.7
2613.22	50251.4
2610.22	50054.9
2607.22	49654.5
2604.22	49598.6
2601.22	49423.8
2598.22	49299.7
2595.21	49196.3
2592.2	49113.3
2589.2	49234.3
2586.19	49150.6
2583.18	48998.8
2580.16	48842.1
2577.15	48825.8
2574.13	48700.6
2571.12	48514.9
2568.1	48225.7
2565.08	47856.9
2562.06	47598.3
2559.03	47312.6
2556.01	47100.5
2552.98	46915.4
2549.96	46830.6
2546.93	46432.8
2543.9	46136.8
2540.86	45765.8
2537.83	45354.9
2534.79	44978.6
2531.76	44817.8
2528.72	44470.5
2525.68	44292.1
2522.64	44012.2
2519.59	43779.1
2516.55	43497
2513.5	43311.4
2510.46	43116.7
2507.41	42910.3
2504.36	42573.5
2501.3	42233.6
2498.25	41916.4
2495.2	41541.6
2492.14	41047.2
2489.08	40741.2
2486.02	40477.2
2482.96	40132.5
2479.9	39746.7
2476.83	39255.1
2473.77	39041.2
2470.7	38850.1
2467.63	38798.2
2464.56	38591.2
2461.49	38489.4
2458.41	38361.1
2455.34	38311.4
2452.26	38064.2
2449.18	37797.4
2446.1	37621.4
2443.02	37555.1
2439.94	37430.3
2436.85	37282.8
2433.77	37180.9
2430.68	37038.2
2427.59	37035.1
2424.5	36968.6
2421.41	36854.2
2418.31	36825.6
2415.22	36682.1
2412.12	36450.2
2409.02	36289.2
2405.92	35958.4
2402.82	35715.2
2399.71	35471.8
2396.61	35282.7
2393.5	35047.2
2390.4	34906.2
2387.29	34794.7
2384.17	34575.9
2381.06	34381.8
2377.95	34052.3
2374.83	33869.4
2371.72	33660.3
2368.6	33371.7
2365.48	33168.6
2362.35	32936.4
2359.23	32713.3
2356.1	32502.7
2352.98	32423.4
2349.85	32209.1
2346.72	32018.5
2343.59	31859.5
2340.46	31791.2
2337.32	31779
2334.18	31631.8
2331.05	31372.9
2327.91	31151.7
2324.77	30915.8
2321.63	30736.3
2318.48	30563.3
2315.34	30358.6
2312.19	30162.3
2309.04	29976
2305.89	29698.5
2302.74	29580.7
2299.58	29360.1
2296.43	29261.6
2293.27	29104.5
2290.11	29059.9
2286.95	28751.2
2283.79	28492.6
2280.63	28216.8
2277.47	27977.6
2274.3	27782.5
2271.13	27626.1
2267.96	27441.6
2264.79	27297.4
2261.62	27042.2
2258.44	26892.4
2255.27	26597.8
2252.09	26293.5
2248.91	26132.7
2245.73	25932.1
2242.55	25660.3
2239.37	25433.4
2236.18	25192.7
2232.99	25156.6
2229.81	25010.3
2226.62	24907.3
2223.42	24782.5
2220.23	24609.1
2217.04	24448
2213.84	24251.5
2210.64	23988.8
2207.44	23832.1
2204.24	23702
2201.04	23637.3
2197.83	23627.4
2194.63	23582.5
2191.42	23441.6
2188.21	23271.6
2185	23050.9
2181.79	22891.2
2178.57	22721.4
2175.36	22526.3
2172.14	22318
2168.92	22031.9
2165.7	21858.3
2162.48	21753
2159.26	21548.5
2156.03	21388.7
2152.81	21304
2149.58	21060.9
2146.35	20739.3
2143.12	20625.5
2139.88	20412.2
2136.65	20197.1
2133.41	20059.2
2130.17	19844.6
2126.93	19746.6
2123.69	19557.4
2120.45	19467
2117.2	19383.2
2113.96	19342.6
2110.71	19244.6
2107.46	19160.8
2104.21	19123
2100.96	19054.7
2097.7	18863.5
2094.45	18833.1
2091.19	18677.7
2087.93	18694.4
2084.67	18511.7
2081.41	18368.2
2078.14	18215
2074.88	18044.8
2071.61	17916.2
2068.34	17809.2
2065.07	17593.3
2061.8	17488.6
2058.52	17302.2
2055.25	17210.8
2051.97	17072.3
2048.69	16990.1
2045.41	16806.1
2042.13	16694.5
2038.85	16590.5
2035.56	16458.6
2032.27	16308.9
2028.99	16290
2025.7	16154
2022.4	16025.2
2019.11	15938.8
2015.82	15790.2
2012.52	15624.5
2009.22	15552
2005.92	15432.7
2002.62	15260.8
1999.31	15129.4
1996.01	14961
1992.7	14780.6
1989.39	14682.8
1986.09	14521.1
1982.77	14412.7
1979.46	14324.7
1976.15	14240.7
1972.83	14169.6
1969.51	14064.4
1966.19	13925.7
1962.87	13797.6
1959.55	13683
1956.22	13606.4
1952.9	13497.8
1949.57	13306.2
1946.24	13232.1
1942.91	13102.6
1939.57	12936.5
1936.24	12809.4
1932.9	12763.7
1929.56	12644.9
1926.23	12558.8
1922.88	12419.1
1919.54	12292.5
1916.2	12135.4
1912.85	11982.6
1909.5	11916.6
1906.15	11768.7
1902.8	11680.8
1899.45	11521
1896.09	11427.1
1892.74	11310.6
1889.38	11206.1
1886.02	11145.9
1882.66	11032.8
1879.3	10941.6
1875.93	10865.9
1872.56	10745.4
1869.2	10700.3
1865.83	10520.8
1862.46	10546.6
1859.08	10440.4
1855.71	10378.7
1852.33	10258.1
1848.95	10214.4
1845.57	10088.6
1842.19	10016.5
1838.81	9987.68
1835.43	9875.32
1832.04	9822.84
1828.65	9683.37
1825.26	9655.95
1821.87	9560.47
1818.48	9428.47
1815.08	9351.47
1811.69	9205.32
1808.29	9150.84
1804.89	9080
1801.49	9064.21
1798.08	8999.68
1794.68	8963.42
1791.27	8975.68
1787.86	8894.21
1784.45	8805
1781.04	8773
1777.63	8723.11
1774.21	8678.89
1770.8	8616.9
1767.38	8580.16
1763.96	8503.21
1760.54	8436.74
1757.11	8393.63
1753.69	8348.16
1750.26	8221.58
1746.83	8149.32
1743.4	8105.11
1739.97	8002.89
1736.54	7882.9
1733.1	7841.58
1729.66	7747.53
1726.22	7676.74
1722.78	7644.53
1719.34	7533.9
1715.9	7459.16
1712.45	7390.32
1709	7355.05
1705.56	7294.26
1702.11	7251.05
1698.65	7176.68
1695.2	7088.84
1691.74	7068.84
1688.28	7037.58
1684.83	6985.79
1681.36	6975.84
1677.9	6931.53
1674.44	6866.05
1670.97	6802.63
1667.5	6743.89
1664.03	6743
1660.56	6709.32
1657.09	6643.95
1653.61	6621.16
1650.14	6530.21
1646.66	6495.74
1643.18	6474.16
1639.7	6439.58
1636.22	6402.74
1632.73	6362.89
1629.24	6383
1625.75	6373.47
1622.26	6325.63
1618.77	6330.42
1615.28	6289.26
1611.78	6275.32
1608.29	6241.32
1604.79	6212.16
1601.29	6179.11
1597.78	6082.21
1594.28	6040
1590.77	5991.53
1587.27	5924.79
1583.76	5860.68
1580.25	5786.21
1576.73	5785.84
1573.22	5692.26
1569.7	5627.47
1566.19	5567.37
1562.67	5525
1559.14	5479.42
1555.62	5424.05
1552.1	5426.84
1548.57	5309.68
1545.04	5302.63
1541.51	5241.63
1537.98	5226.11
1534.45	5214.42
1530.91	5170.47
1527.37	5164.79
1523.83	5121.26
1520.29	5112.84
1516.75	5127.84
1513.21	5074.1
1509.66	5044.95
1506.11	4995.74
1502.57	5011.26
1499.01	4969.84
1495.46	4926.53
1491.91	4899.58
1488.35	4839.21
1484.79	4823.74
1481.23	4749.37
1477.67	4694.84
1474.11	4645.37
1470.54	4584.32
1466.98	4527.84
1463.41	4520.37
1459.84	4466.53
1456.26	4461.84
1452.69	4403.47
1449.11	4429.9
1445.54	4396.16
1441.96	4377.74
1438.38	4346.42
1434.79	4311.37
1431.21	4283.05
1427.62	4298.37
1424.03	4249.37
1420.44	4256.79
1416.85	4223
1413.26	4212.1
1409.66	4148.32
1406.07	4145.1
1402.47	4109.74
1398.87	4067.84
1395.27	4056.21
1391.66	4048.37
1388.06	4022.21
1384.45	4025.95
1380.84	3967.79
1377.23	3974.16
1373.62	3924.11
1370	3958.53
1366.38	3916.16
1362.77	3889.05
1359.15	3908.26
1355.52	3888.05
1351.9	3890.68
1348.27	3892.84
1344.65	3855.16
1341.02	3862.89
1337.39	3839.21
1333.76	3855.42
1330.12	3841.42
1326.48	3808.63
1322.85	3804
1319.21	3771.53
1315.57	3753.58
1311.92	3688.89
1308.28	3669.53
1304.63	3610.21
1300.98	3586.05
1297.33	3566.42
1293.68	3512.16
1290.02	3519
1286.37	3461.32
1282.71	3466.05
1279.05	3387.42
1275.39	3388.68
1271.73	3314
1268.06	3307.79
1264.4	3264.84
1260.73	3248.32
1257.06	3223.89
1253.38	3212.16
1249.71	3175.95
1246.03	3156.84
1242.36	3138.05
1238.68	3095.16
1235	3069.26
1231.31	3038.16
1227.63	3004.05
1223.94	2965.26
1220.25	2962.68
1216.56	2926.11
1212.87	2897.53
1209.18	2838.95
1205.48	2863.89
1201.78	2809.16
1198.08	2796.68
1194.38	2770.05
1190.68	2766.68
1186.98	2744.26
1183.27	2714.42
1179.56	2675.58
1175.85	2677
1172.14	2643
1168.42	2650.58
1164.71	2605.26
1160.99	2610.84
1157.27	2586.16
1153.55	2570
1149.83	2551.11
1146.1	2517.53
1142.38	2487.32
1138.65	2455
1134.92	2412.37
1131.18	2422.68
1127.45	2390.63
1123.71	2341.84
1119.98	2303.37
1116.24	2257.68
1112.5	2263.26
1108.75	2238.53
1105.01	2235.84
1101.26	2183.95
1097.51	2178.37
1093.76	2179.89
1090.01	2162.79
1086.25	2169.74
1082.5	2145.47
1078.74	2153.95
1074.98	2111.21
1071.22	2113
1067.45	2104.68
1063.69	2095.11
1059.92	2077.63
1056.15	2081.53
1052.38	2061.58
1048.61	2063.11
1044.83	2059.89
1041.06	2028.74
1037.28	2033.95
1033.5	2016.42
1029.72	2019.89
1025.93	1997.47
1022.15	1965.63
1018.36	1983
1014.57	1973.95
1010.78	1959.42
1006.99	1958.68
1003.19	1983.68
999.393	1991.16
995.595	2009.21
991.793	2033.63
987.991	2045.32
984.186	2071.68
980.38	2080.89
976.572	2069.47
972.762	2085.32
968.95	2076.47
965.136	2067.89
961.32	2033.05
957.503	2067.26
953.683	2053.05
949.862	2042.42
946.039	2033.32
942.214	2041.68
938.387	2054.42
934.558	2039.26
930.727	2011.47
926.895	1981.32
923.06	1958.21
919.224	1955.84
915.386	1949.63
911.545	1939.32
907.703	1957.37
903.859	1946.79
900.014	1968.68
896.166	1943.89
892.316	1952.58
888.465	1957.42
884.612	1956.05
880.756	1958.16
876.899	1955
873.04	1945.74
869.179	1948.63
865.316	1954.05
861.452	1940.16
857.585	1938.63
853.717	1948.74
849.846	1914.42
845.974	1913.95
842.099	1930.74
838.224	1921.63
834.345	1907.42
830.466	1908.37
826.584	1911.58
822.7	1887.79
818.815	1867.42
814.927	1882.42
811.037	1868.74
807.146	1853.47
803.253	1859.63
799.358	1845.58
795.46	1835.74
791.562	1837.95
787.66	1854.79
783.758	1848.58
779.853	1810.11
775.946	1839.47
772.038	1843.21
768.127	1804.42
764.215	1819.47
760.3	1819.32
756.385	1797.53
752.466	1812.89
748.546	1793.74
744.624	1808.47
740.7	1810.89
736.774	1834.37
732.846	1840.47
728.916	1818.68
724.984	1846.95
721.051	1813.95
717.116	1818
713.178	1797.05
709.239	1804.11
705.297	1795.68
701.354	1796.84
697.409	1799.16
693.462	1811.16
689.513	1789.42
685.562	1762.68
681.609	1773
677.654	1773.26
673.698	1741.95
669.739	1772.32
665.778	1768.89
661.815	1759.79
657.851	1773.84
653.884	1739
649.916	1751.68
645.946	1737.58
641.973	1751.74
637.999	1785.53
634.023	1771.26
630.044	1770.05
626.064	1753.58
622.082	1778.89
618.098	1752.26
614.112	1753.05
610.124	1737.84
606.134	1742.63
602.142	1734.53
598.148	1732.05
594.152	1716.21
590.154	1717.84
586.154	1746.53
582.153	1741.89
578.15	1714.58
574.144	1727.26
570.136	1709.95
566.127	1726.58
562.116	1736.32
558.102	1743.42
554.086	1748.26
550.069	1733.47
546.049	1776.53
542.028	1783.63
538.005	1832.58
533.98	1883.53
529.952	2043.16
525.923	2740.47
521.892	4787.11
517.858	4891.63
513.823	2592.05
509.786	1972.58
505.747	1857.63
501.706	1812.63
497.663	1790.79
493.618	1800.58
489.571	1785.84
485.522	1776.74
481.471	1772.53
477.418	1776.11
473.362	1787.95
469.306	1789.79
465.247	1806.95
461.186	1797.21
457.122	1827.79
453.058	1854.21
448.991	1871.16
444.922	1875.42
440.851	1860.63
436.778	1881.74
432.703	1890.26
428.627	1900.11
424.547	1931.32
420.466	1942.11
416.384	1964.32
412.298	1968.32
408.211	1982.47
404.122	1976.05
400.031	1984.84
395.939	2019.47
391.844	1991.84
387.747	2000.68
383.648	2005.21
379.547	2014.68
375.444	2033.53
371.339	2005.79
367.232	2042.26
363.123	2039.47
359.012	2021.68
354.898	2030.05
350.783	2038.21
346.666	2057.47
342.548	2068.74
338.426	2036.11
334.303	2078.84
330.178	2079.47
326.05	2081.79
321.922	2108.21
317.79	2128.26
313.657	2147.89
309.522	2172.53
305.385	2202.84
301.245	2180.37
297.104	2140.37
292.96	2082
288.815	2071.84
284.668	2088.89
280.518	2073.26
276.367	2064.53
272.213	2080.79
268.058	2067.32
263.9	2062.95
259.74	2068.74
255.578	2118.63
251.415	2121
247.248	2105.47
243.081	2145.63
238.911	2167.84
234.739	2204.47
230.565	2210.53
226.389	2204.37
222.211	2167.89
218.031	2194.21
213.848	2138.79
209.664	2141.74
205.479	2129.95
201.29	2071.89
197.1	2060.63
192.907	2049
188.712	1997.58
184.516	2029.42
180.317	2010.74
176.117	2013.53
171.914	2044.79
167.71	2058.16
163.503	2072.89
159.293	2083.26
155.083	2098.05
150.87	2074.58
146.655	2096.11
142.438	2106.11
138.218	2099.37
133.997	2121.05
129.773	2185.95
125.548	2210.89
121.321	2245.11
117.091	2241.11
112.86	2296.37
108.626	2252.05
104.39	2292.53
100.152	2320.37
95.9117	2301.84
91.6705	2230.32
87.4255	1982
85.3029	1722.63