File: RAMAN/Raman_Ilum/HCS_MoS2_NF_Amonio.txt
3495.35	723.263
3492.81	854.789
3490.26	936
3487.71	973.526
3485.17	1025.95
3482.62	1040.05
3480.06	1073.32
3477.51	1112.05
3474.96	1134.79
3472.4	1175.26
3469.85	1194.11
3467.29	1265.11
3464.73	1305.63
3462.17	1351
3459.61	1425.79
3457.04	1457.32
3454.48	1518.21
3451.91	1549.16
3449.35	1628.47
3446.78	1685.79
3444.21	1709.89
3441.64	1735.95
3439.07	1768.74
3436.49	1807.21
3433.92	1830.58
3431.34	1866.53
3428.76	1919.47
3426.18	1942.32
3423.6	1977.63
3421.02	1970.11
3418.44	2033
3415.85	2030.21
3413.27	2085.68
3410.68	2124.05
3408.09	2140.32
3405.5	2190.68
3402.91	2217.63
3400.32	2289
3397.72	2310.95
3395.13	2366.95
3392.53	2390.47
3389.93	2451.84
3387.33	2495.26
3384.73	2533.26
3382.13	2546.74
3379.53	2546.58
3376.92	2588.21
3374.32	2627.79
3371.71	2660.95
3369.1	2639.21
3366.49	2689.89
3363.88	2729.68
3361.26	2728.11
3358.65	2775.84
3356.03	2812.68
3353.42	2832.37
3350.8	2887.58
3348.18	2912.16
3345.56	2954.21
3342.93	3005.21
3340.31	3021.89
3337.69	3068
3335.06	3116.58
3332.43	3147.53
3329.8	3189.89
3327.17	3205.21
3324.54	3253.11
3321.91	3243.42
3319.27	3274.95
3316.63	3297.16
3314	3336.79
3311.36	3321.68
3308.72	3345.26
3306.08	3344.95
3303.43	3406.79
3300.79	3438.47
3298.14	3527.05
3295.5	3600.32
3292.85	3716.05
3290.2	3871.11
3287.55	4064.53
3284.89	4279.26
3282.24	4531.63
3279.58	4829.58
3276.93	5168.47
3274.27	5498.79
3271.61	5872.84
3268.95	6257.53
3266.29	6620.53
3263.62	7042.74
3260.96	7368.21
3258.29	7666.37
3255.62	7926.58
3252.95	8113.9
3250.28	8345.84
3247.61	8516.95
3244.94	8658.21
3242.26	8758.16
3239.59	8859.37
3236.91	8907.42
3234.23	9026.42
3231.55	9074.32
3228.87	9165.37
3226.19	9195.89
3223.5	9243.37
3220.82	9296
3218.13	9362.89
3215.44	9434.31
3212.75	9470.26
3210.06	9594.05
3207.37	9678.26
3204.67	9792.74
3201.98	9890.16
3199.28	10037.6
3196.58	10147.9
3193.88	10298.2
3191.18	10450.2
3188.48	10567.2
3185.78	10681.1
3183.07	10808.9
3180.36	10926.8
3177.66	11111.1
3174.95	11182.4
3172.24	11278.4
3169.52	11402.7
3166.81	11523.7
3164.1	11720.9
3161.38	11819.3
3158.66	12018.7
3155.94	12156.2
3153.22	12306
3150.5	12400.9
3147.78	12597.4
3145.05	12695.3
3142.32	12853.7
3139.6	12943.2
3136.87	13020.8
3134.14	13052.5
3131.41	13130.2
3128.67	13191.3
3125.94	13280.6
3123.2	13339.6
3120.47	13435.4
3117.73	13507.7
3114.99	13615.1
3112.24	13639.5
3109.5	13749.3
3106.76	13762.9
3104.01	13836.2
3101.26	13907.1
3098.51	13981.5
3095.76	14096.9
3093.01	14150.6
3090.26	14209.7
3087.5	14318.5
3084.75	14389.8
3081.99	14532.3
3079.23	14563.2
3076.47	14635.1
3073.71	14758.4
3070.95	14785.5
3068.18	14818.4
3065.42	14834.9
3062.65	14790.1
3059.88	14840.8
3057.11	14842
3054.34	14807.9
3051.57	14833.9
3048.8	14857.1
3046.02	14899.7
3043.24	14992.3
3040.46	14994.4
3037.68	15107.2
3034.9	15148.6
3032.12	15242.3
3029.34	15310.8
3026.55	15412.7
3023.76	15518.2
3020.97	15603.9
3018.18	15681.3
3015.39	15830.7
3012.6	15966.1
3009.81	16082.5
3007.01	16131.1
3004.21	16227.4
3001.41	16372.9
2998.61	16549.5
2995.81	16598.9
2993.01	16705.9
2990.21	16777.4
2987.4	16862.9
2984.59	16961.2
2981.78	16993.2
2978.97	17035.6
2976.16	17107
2973.35	17179.7
2970.54	17213.1
2967.72	17352.7
2964.9	17405.1
2962.08	17431.1
2959.26	17542.2
2956.44	17535.5
2953.62	17561.4
2950.8	17619.2
2947.97	17587.3
2945.14	17652.7
2942.31	17666.5
2939.48	17723.7
2936.65	17812.2
2933.82	17804.2
2930.98	17840.8
2928.15	17876.6
2925.31	17862.7
2922.47	17948.7
2919.63	18011.8
2916.79	18046.4
2913.95	18063
2911.1	18096.1
2908.26	18192.9
2905.41	18239.6
2902.56	18282.8
2899.71	18344.1
2896.86	18437.7
2894	18411.5
2891.15	18477.8
2888.29	18492.8
2885.44	18457.3
2882.58	18537.9
2879.72	18569.4
2876.85	18696.8
2873.99	18707.2
2871.12	18619.5
2868.26	18627.1
2865.39	18484.5
2862.52	18513.1
2859.65	18510.8
2856.78	18543.6
2853.9	18515.7
2851.03	18471.5
2848.15	18430.2
2845.27	18364.7
2842.39	18362.2
2839.51	18331
2836.63	18346.8
2833.75	18281.4
2830.86	18263.9
2827.97	18244.6
2825.09	18255.4
2822.2	18232.9
2819.3	18268.8
2816.41	18259.4
2813.52	18238.1
2810.62	18227.1
2807.72	18272.4
2804.82	18214.8
2801.92	18255.5
2799.02	18335.6
2796.12	18310.2
2793.22	18308.6
2790.31	18363.8
2787.4	18386.1
2784.49	18402.6
2781.58	18381.7
2778.67	18377.3
2775.76	18376.2
2772.84	18349.4
2769.92	18263.3
2767.01	18254.5
2764.09	18302.3
2761.17	18239.9
2758.24	18133.5
2755.32	18060.6
2752.39	18050.1
2749.47	18018.6
2746.54	18042.7
2743.61	18017.2
2740.68	17973.8
2737.75	17941.7
2734.81	17937.2
2731.88	17994.2
2728.94	18002.5
2726	17962.6
2723.06	17899.9
2720.12	17820.1
2717.17	17690.7
2714.23	17674.4
2711.28	17674.8
2708.34	17614.1
2705.39	17593.4
2702.44	17439.3
2699.48	17431.8
2696.53	17409.4
2693.58	17315.2
2690.62	17348.7
2687.66	17256.4
2684.7	17258.4
2681.74	17209.9
2678.78	17112.3
2675.81	17172.5
2672.85	17096.9
2669.88	17024.7
2666.91	17034.6
2663.94	16892.9
2660.97	16826.4
2658	16912.9
2655.02	16890.6
2652.05	16841.6
2649.07	16806.3
2646.09	16723.9
2643.11	16749.6
2640.13	16683.6
2637.14	16660.6
2634.16	16509.9
2631.17	16483.5
2628.18	16418
2625.19	16336.5
2622.2	16410.5
2619.21	16283.4
2616.21	16292
2613.22	16128.9
2610.22	16109.5
2607.22	15950.5
2604.22	15904.3
2601.22	15784.4
2598.22	15796.2
2595.21	15705.3
2592.2	15719.8
2589.2	15769.2
2586.19	15721.3
2583.18	15702.9
2580.16	15607.6
2577.15	15599.5
2574.13	15576.3
2571.12	15586.6
2568.1	15484.3
2565.08	15349.2
2562.06	15269.3
2559.03	15174.3
2556.01	15118.4
2552.98	15054.5
2549.96	15023.3
2546.93	14832.9
2543.9	14782.7
2540.86	14608.5
2537.83	14476.6
2534.79	14359.5
2531.76	14296
2528.72	14237.3
2525.68	14157.3
2522.64	14092.4
2519.59	14030.5
2516.55	13930.7
2513.5	13895.1
2510.46	13823.6
2507.41	13750.4
2504.36	13716.6
2501.3	13575.3
2498.25	13485.8
2495.2	13366.7
2492.14	13223.7
2489.08	13116.8
2486.02	13062.7
2482.96	12966.6
2479.9	12839.5
2476.83	12674.9
2473.77	12615.5
2470.7	12556.1
2467.63	12498.3
2464.56	12442.5
2461.49	12406.6
2458.41	12358.5
2455.34	12383.4
2452.26	12293.6
2449.18	12266.6
2446.1	12208.2
2443.02	12050.5
2439.94	12061.4
2436.85	12026.9
2433.77	11941.3
2430.68	11978.6
2427.59	11980.3
2424.5	11969.8
2421.41	11940.8
2418.31	11895.4
2415.22	11819.2
2412.12	11835.4
2409.02	11765.9
2405.92	11699.7
2402.82	11569.8
2399.71	11529.5
2396.61	11468.6
2393.5	11415.9
2390.4	11362.3
2387.29	11322
2384.17	11240.3
2381.06	11243.5
2377.95	11070.1
2374.83	11030.3
2371.72	10962.9
2368.6	10868.3
2365.48	10799.9
2362.35	10749.3
2359.23	10634.2
2356.1	10620.3
2352.98	10596.2
2349.85	10526
2346.72	10531.4
2343.59	10450.4
2340.46	10394.8
2337.32	10366.9
2334.18	10353.4
2331.05	10317.8
2327.91	10228
2324.77	10141
2321.63	10082.3
2318.48	10016.6
2315.34	9976
2312.19	9894.74
2309.04	9800.42
2305.89	9776.32
2302.74	9729.42
2299.58	9696.16
2296.43	9662.95
2293.27	9634.58
2290.11	9551.53
2286.95	9481.63
2283.79	9400.84
2280.63	9306.95
2277.47	9289.84
2274.3	9169.53
2271.13	9154
2267.96	9077.79
2264.79	9067.79
2261.62	8986.47
2258.44	8910.16
2255.27	8825.05
2252.09	8772.58
2248.91	8675.05
2245.73	8633
2242.55	8564.26
2239.37	8477.89
2236.18	8423.89
2232.99	8411.63
2229.81	8387.05
2226.62	8371.84
2223.42	8273.16
2220.23	8187
2217.04	8173.63
2213.84	8109.63
2210.64	8020.74
2207.44	8005.21
2204.24	7951.95
2201.04	7946.63
2197.83	7944.53
2194.63	7940.16
2191.42	7914.32
2188.21	7848.05
2185	7803.63
2181.79	7759.63
2178.57	7706.74
2175.36	7672.42
2172.14	7557.84
2168.92	7497.37
2165.7	7395.58
2162.48	7405.26
2159.26	7346.11
2156.03	7244.84
2152.81	7246.89
2149.58	7131.21
2146.35	7066.26
2143.12	7062.79
2139.88	7002.84
2136.65	6968.26
2133.41	6890.53
2130.17	6854.53
2126.93	6805.42
2123.69	6755
2120.45	6720.84
2117.2	6741.32
2113.96	6697.53
2110.71	6649.58
2107.46	6666.11
2104.21	6614.53
2100.96	6574.84
2097.7	6539.74
2094.45	6510.84
2091.19	6479.1
2087.93	6459.37
2084.67	6441.16
2081.41	6391.32
2078.14	6355.21
2074.88	6275.05
2071.61	6235.11
2068.34	6236
2065.07	6196.26
2061.8	6125.37
2058.52	6108.26
2055.25	6071.58
2051.97	5976.32
2048.69	5980.37
2045.41	5924.74
2042.13	5902.42
2038.85	5881.05
2035.56	5839.84
2032.27	5780.95
2028.99	5818.53
2025.7	5740.42
2022.4	5701.32
2019.11	5697.84
2015.82	5625
2012.52	5569.32
2009.22	5548.47
2005.92	5508
2002.62	5457.89
1999.31	5442.68
1996.01	5359.21
1992.7	5340.79
1989.39	5295.84
1986.09	5278.47
1982.77	5225.1
1979.46	5203.89
1976.15	5212.58
1972.83	5176.26
1969.51	5155.58
1966.19	5096.1
1962.87	5045.26
1959.55	5023.05
1956.22	5029.32
1952.9	4972.26
1949.57	4928.26
1946.24	4903.53
1942.91	4864.79
1939.57	4801.53
1936.24	4761.84
1932.9	4767.53
1929.56	4733.37
1926.23	4692
1922.88	4654.84
1919.54	4599.58
1916.2	4572.32
1912.85	4541.79
1909.5	4487.05
1906.15	4469
1902.8	4383.1
1899.45	4371.47
1896.09	4357.79
1892.74	4319.63
1889.38	4275.47
1886.02	4273.63
1882.66	4244.16
1879.3	4204.53
1875.93	4169.79
1872.56	4159.53
1869.2	4163.16
1865.83	4109.79
1862.46	4129.58
1859.08	4062.37
1855.71	4047.58
1852.33	4005.95
1848.95	4025.11
1845.57	3974.79
1842.19	3939.74
1838.81	3946.05
1835.43	3899.37
1832.04	3875.53
1828.65	3838.95
1825.26	3849.32
1821.87	3812.68
1818.48	3774.37
1815.08	3747.16
1811.69	3690.42
1808.29	3690.95
1804.89	3685.79
1801.49	3667.42
1798.08	3655.53
1794.68	3668.68
1791.27	3671.84
1787.86	3642.89
1784.45	3635.74
1781.04	3604.47
1777.63	3604.32
1774.21	3603.89
1770.8	3575.58
1767.38	3591.21
1763.96	3585.63
1760.54	3539.68
1757.11	3520.05
1753.69	3540.58
1750.26	3456.05
1746.83	3469.47
1743.4	3474.89
1739.97	3417.16
1736.54	3378.42
1733.1	3367.95
1729.66	3357.47
1726.22	3319.42
1722.78	3333.95
1719.34	3284.37
1715.9	3290.26
1712.45	3269.53
1709	3251.63
1705.56	3236.26
1702.11	3226.26
1698.65	3214.58
1695.2	3205
1691.74	3187.26
1688.28	3196.63
1684.83	3187.89
1681.36	3177.68
1677.9	3176.84
1674.44	3154.11
1670.97	3158.89
1667.5	3124.89
1664.03	3114.05
1660.56	3123.68
1657.09	3137
1653.61	3142.32
1650.14	3089
1646.66	3104
1643.18	3083.9
1639.7	3107.42
1636.22	3086.05
1632.73	3102.79
1629.24	3126.42
1625.75	3114.16
1622.26	3128
1618.77	3149.68
1615.28	3130.79
1611.78	3136.37
1608.29	3136.53
1604.79	3177
1601.29	3164.37
1597.78	3165.37
1594.28	3145.84
1590.77	3111.16
1587.27	3106
1583.76	3084
1580.25	3044.79
1576.73	3049.05
1573.22	3043.42
1569.7	3017.84
1566.19	2972.68
1562.67	2995.37
1559.14	2974.58
1555.62	2967.37
1552.1	2980
1548.57	2919.47
1545.04	2940.89
1541.51	2917.79
1537.98	2919.53
1534.45	2924.47
1530.91	2902.05
1527.37	2888.68
1523.83	2893.84
1520.29	2887.21
1516.75	2921.9
1513.21	2905.84
1509.66	2913.42
1506.11	2859.84
1502.57	2893.53
1499.01	2897
1495.46	2861.42
1491.91	2888.11
1488.35	2855.32
1484.79	2855.53
1481.23	2829.47
1477.67	2806.42
1474.11	2797
1470.54	2752.26
1466.98	2758.74
1463.41	2718.84
1459.84	2721.21
1456.26	2711.95
1452.69	2733.58
1449.11	2724.53
1445.54	2734.63
1441.96	2712.63
1438.38	2704.16
1434.79	2700.21
1431.21	2682.42
1427.62	2710.11
1424.03	2700.95
1420.44	2725.21
1416.85	2695.95
1413.26	2698.95
1409.66	2685.05
1406.07	2690.11
1402.47	2666.21
1398.87	2686.16
1395.27	2682.21
1391.66	2687.84
1388.06	2671.32
1384.45	2688.84
1380.84	2667.84
1377.23	2680.63
1373.62	2671.42
1370	2690.05
1366.38	2678
1362.77	2664.37
1359.15	2697.95
1355.52	2689.26
1351.9	2700.89
1348.27	2721.05
1344.65	2717.26
1341.02	2727.95
1337.39	2720.84
1333.76	2744.42
1330.12	2721.26
1326.48	2714.05
1322.85	2738.63
1319.21	2717.79
1315.57	2702.37
1311.92	2695.05
1308.28	2695.68
1304.63	2665.84
1300.98	2655.16
1297.33	2655.58
1293.68	2624.68
1290.02	2619.37
1286.37	2589.47
1282.71	2594.53
1279.05	2539.47
1275.39	2555.37
1271.73	2527
1268.06	2503.32
1264.4	2487.63
1260.73	2507
1257.06	2472.95
1253.38	2482.1
1249.71	2468.05
1246.03	2460.53
1242.36	2441
1238.68	2436.26
1235	2408.95
1231.31	2392.84
1227.63	2362.58
1223.94	2351.37
1220.25	2351.58
1216.56	2336
1212.87	2305.1
1209.18	2291.26
1205.48	2322.11
1201.78	2271.79
1198.08	2271.16
1194.38	2246.42
1190.68	2243.05
1186.98	2245.21
1183.27	2233.37
1179.56	2214.42
1175.85	2225.63
1172.14	2179.32
1168.42	2214.89
1164.71	2171.79
1160.99	2204.68
1157.27	2171.84
1153.55	2190.16
1149.83	2190.21
1146.1	2169.79
1142.38	2139.26
1138.65	2127.89
1134.92	2118.16
1131.18	2129.79
1127.45	2112.79
1123.71	2052
1119.98	2059.37
1116.24	2011.26
1112.5	2030.47
1108.75	2010.21
1105.01	2024.11
1101.26	2002.16
1097.51	1983.68
1093.76	1996.11
1090.01	1970.95
1086.25	1993.74
1082.5	1985.32
1078.74	1987.26
1074.98	1979.37
1071.22	1989.37
1067.45	1989.53
1063.69	1977.37
1059.92	1967.89
1056.15	1967.84
1052.38	1993.16
1048.61	1984.11
1044.83	1995.63
1041.06	1953.21
1037.28	1954.58
1033.5	1977.89
1029.72	1962.89
1025.93	1961.95
1022.15	1938.42
1018.36	1931.95
1014.57	1952.84
1010.78	1938.26
1006.99	1947.95
1003.19	1978.11
999.393	1986.47
995.595	2011.47
991.793	2020.42
987.991	2040.95
984.186	2074.58
980.38	2080.37
976.572	2073.16
972.762	2109.47
968.95	2089.11
965.136	2112.26
961.32	2098.11
957.503	2106.95
953.683	2080.05
949.862	2098.89
946.039	2099.42
942.214	2070.74
938.387	2098.63
934.558	2108.32
930.727	2068.05
926.895	2072.32
923.06	2059.42
919.224	2054.42
915.386	2080.74
911.545	2056.26
907.703	2072.79
903.859	2084.21
900.014	2111.74
896.166	2092.21
892.316	2102
888.465	2115.26
884.612	2125.74
880.756	2131.95
876.899	2113.32
873.04	2112.89
869.179	2123.68
865.316	2147.21
861.452	2143.16
857.585	2157
853.717	2153.26
849.846	2150.95
845.974	2127.42
842.099	2154.79
838.224	2131.68
834.345	2126.21
830.466	2144.47
826.584	2143.79
822.7	2148.74
818.815	2126.32
814.927	2138.11
811.037	2129.79
807.146	2105.26
803.253	2104
799.358	2105.26
795.46	2114.32
791.562	2091.68
787.66	2123.53
783.758	2113.42
779.853	2085.53
775.946	2100.95
772.038	2094.58
768.127	2091
764.215	2113.21
760.3	2084.58
756.385	2092.37
752.466	2100.42
748.546	2088.53
744.624	2111.37
740.7	2121.26
736.774	2148.53
732.846	2175.42
728.916	2136.26
724.984	2167.74
721.051	2152.84
717.116	2149.37
713.178	2126.26
709.239	2129.32
705.297	2107.47
701.354	2120.68
697.409	2101.95
693.462	2105.58
689.513	2120.05
685.562	2087.26
681.609	2105.84
677.654	2100.84
673.698	2099.32
669.739	2093.58
665.778	2087.79
661.815	2090.89
657.851	2091.68
653.884	2084.47
649.916	2081.74
645.946	2086.89
641.973	2111.95
637.999	2118.89
634.023	2106.26
630.044	2095.11
626.064	2108.42
622.082	2094.68
618.098	2094.89
614.112	2096.68
610.124	2080.95
606.134	2067.53
602.142	2079.68
598.148	2075.37
594.152	2067.32
590.154	2051.53
586.154	2079.11
582.153	2081.05
578.15	2089.47
574.144	2069.95
570.136	2072.63
566.127	2080.05
562.116	2090.16
558.102	2083.79
554.086	2086.9
550.069	2067.16
546.049	2099.47
542.028	2113.79
538.005	2132.42
533.98	2160.79
529.952	2218.21
525.923	2599.53
521.892	3669.95
517.858	3632.63
513.823	2486.63
509.786	2205.1
505.747	2155.42
501.706	2143.84
497.663	2146.63
493.618	2149.84
489.571	2137.89
485.522	2116.42
481.471	2149.58
477.418	2132.42
473.362	2134.16
469.306	2127
465.247	2140.21
461.186	2111.26
457.122	2139.21
453.058	2157.16
448.991	2158
444.922	2145.32
440.851	2137.42
436.778	2158.74
432.703	2168.16
428.627	2173.95
424.547	2185.84
420.466	2210.37
416.384	2207.21
412.298	2215.63
408.211	2220.84
404.122	2232.21
400.031	2237.26
395.939	2248.84
391.844	2256.47
387.747	2252
383.648	2282.58
379.547	2252.26
375.444	2269.68
371.339	2236
367.232	2287.1
363.123	2262.11
359.012	2246.47
354.898	2243.37
350.783	2252.53
346.666	2260.63
342.548	2288.89
338.426	2273.53
334.303	2297.53
330.178	2282.53
326.05	2291.26
321.922	2314.68
317.79	2315.84
313.657	2338.79
309.522	2345.89
305.385	2361.95
301.245	2341.16
297.104	2285.63
292.96	2265.42
288.815	2259.79
284.668	2290.21
280.518	2270.37
276.367	2279.79
272.213	2259
268.058	2283.63
263.9	2305.16
259.74	2302.58
255.578	2326.68
251.415	2342.63
247.248	2329.89
243.081	2353.74
238.911	2366.74
234.739	2337.42
230.565	2355.05
226.389	2341.05
222.211	2292.68
218.031	2331.37
213.848	2233.16
209.664	2223.74
205.479	2236.53
201.29	2174.16
197.1	2156.95
192.907	2138.1
188.712	2080.84
184.516	2091.47
180.317	2071.68
176.117	2093.68
171.914	2118.26
167.71	2148.79
163.503	2163.79
159.293	2180.32
155.083	2192.74
150.87	2172.21
146.655	2153.42
142.438	2184.05
138.218	2166.21
133.997	2203.16
129.773	2260.11
125.548	2286
121.321	2329.37
117.091	2308.79
112.86	2380.32
108.626	2347.42
104.39	2380
100.152	2386.11
95.9117	2378.37
91.6705	2286.84
87.4255	2015.79
85.3029	1741.74