File: RAMAN/Raman_Ilum/HCS_MoS2_NF_Sodio.txt
3495.35	2277.68
3492.81	2663.58
3490.26	2930.37
3487.71	3046.9
3485.17	3211.79
3482.62	3282.79
3480.06	3361.47
3477.51	3489.05
3474.96	3574.63
3472.4	3695.42
3469.85	3823
3467.29	3972.79
3464.73	4109.21
3462.17	4269.47
3459.61	4460
3457.04	4627.84
3454.48	4773.68
3451.91	4943.74
3449.35	5119.05
3446.78	5255.58
3444.21	5402.47
3441.64	5495
3439.07	5581.74
3436.49	5697.74
3433.92	5817.1
3431.34	5924.21
3428.76	6011.53
3426.18	6094.89
3423.6	6195.32
3421.02	6231
3418.44	6350.42
3415.85	6415.74
3413.27	6529.47
3410.68	6628.1
3408.09	6754.68
3405.5	6912.53
3402.91	6998.68
3400.32	7195.21
3397.72	7281.47
3395.13	7437.47
3392.53	7538.26
3389.93	7664.89
3387.33	7766.26
3384.73	7868.16
3382.13	7938.26
3379.53	8027.32
3376.92	8085.32
3374.32	8167.9
3371.71	8260
3369.1	8303.74
3366.49	8340.74
3363.88	8439.84
3361.26	8525.79
3358.65	8620.63
3356.03	8725.21
3353.42	8816.16
3350.8	8955.89
3348.18	9075
3345.56	9222.63
3342.93	9333.32
3340.31	9442.47
3337.69	9583.37
3335.06	9716.58
3332.43	9807.26
3329.8	9916.26
3327.17	10033.3
3324.54	10071.3
3321.91	10115.6
3319.27	10187.2
3316.63	10226.2
3314	10290.1
3311.36	10333.6
3308.72	10411.3
3306.08	10442.6
3303.43	10549
3300.79	10738.7
3298.14	10964
3295.5	11221.3
3292.85	11599.6
3290.2	12048.2
3287.55	12652.3
3284.89	13288.7
3282.24	14058.2
3279.58	14940.2
3276.93	16004.3
3274.27	17074.7
3271.61	18215.8
3268.95	19377.3
3266.29	20597.4
3263.62	21842.9
3260.96	22879.2
3258.29	23822.5
3255.62	24621.4
3252.95	25250.3
3250.28	25901.2
3247.61	26471.1
3244.94	26872.5
3242.26	27211.3
3239.59	27508.3
3236.91	27762.6
3234.23	27943.6
3231.55	28211.1
3228.87	28371.9
3226.19	28498.9
3223.5	28764.9
3220.82	28838.7
3218.13	29045.8
3215.44	29293.2
3212.75	29501.6
3210.06	29777.2
3207.37	30105.4
3204.67	30436.9
3201.98	30792.5
3199.28	31268.2
3196.58	31613.4
3193.88	32013.9
3191.18	32510.5
3188.48	32773.8
3185.78	33207.7
3183.07	33633.5
3180.36	33919.6
3177.66	34434.9
3174.95	34739.1
3172.24	35176.8
3169.52	35524.7
3166.81	35864.3
3164.1	36350.6
3161.38	36805.4
3158.66	37221.1
3155.94	37754.5
3153.22	38237.1
3150.5	38735.2
3147.78	39143.6
3145.05	39470.8
3142.32	39939.5
3139.6	40300.7
3136.87	40547.9
3134.14	40741.4
3131.41	40972.7
3128.67	41243
3125.94	41470.1
3123.2	41733.1
3120.47	41964.3
3117.73	42096.2
3114.99	42355.5
3112.24	42513.6
3109.5	42795.1
3106.76	42952
3104.01	43122.2
3101.26	43244.9
3098.51	43533.1
3095.76	43683.6
3093.01	43955.1
3090.26	44082.1
3087.5	44374.1
3084.75	44672.2
3081.99	44927.3
3079.23	45316.1
3076.47	45489
3073.71	45742.5
3070.95	45856.5
3068.18	45986.5
3065.42	45913.9
3062.65	45935.1
3059.88	46067.3
3057.11	45999.2
3054.34	46080.4
3051.57	46166.8
3048.8	46266.5
3046.02	46396.3
3043.24	46530.4
3040.46	46632.2
3037.68	46950.6
3034.9	47197.2
3032.12	47509.1
3029.34	47631.3
3026.55	47929.7
3023.76	48204.4
3020.97	48570.9
3018.18	48802.9
3015.39	49250.4
3012.6	49705.5
3009.81	49965.7
3007.01	50258.2
3004.21	50591.4
3001.41	50999.9
2998.61	51248.4
2995.81	51682.3
2993.01	52036
2990.21	52236.2
2987.4	52382.6
2984.59	52638.7
2981.78	52842.5
2978.97	53129.3
2976.16	53292.3
2973.35	53386.6
2970.54	53456
2967.72	53851.1
2964.9	53941.1
2962.08	54072.5
2959.26	54291.2
2956.44	54436.2
2953.62	54606.4
2950.8	54592.9
2947.97	54690.5
2945.14	54714.7
2942.31	54861.9
2939.48	55013.1
2936.65	55001.4
2933.82	55142.7
2930.98	55342.7
2928.15	55420.2
2925.31	55552.5
2922.47	55663.6
2919.63	55836.3
2916.79	55939.6
2913.95	56009.2
2911.1	56107.7
2908.26	56264
2905.41	56374.2
2902.56	56751
2899.71	56854.7
2896.86	57104.5
2894	57134.1
2891.15	57147.9
2888.29	57199
2885.44	57229.5
2882.58	57450.3
2879.72	57618.5
2876.85	57845.3
2873.99	57974.6
2871.12	57875.3
2868.26	57721.4
2865.39	57531.6
2862.52	57458.2
2859.65	57518.2
2856.78	57589.1
2853.9	57353.5
2851.03	57307.7
2848.15	57217.4
2845.27	57030.4
2842.39	56714.4
2839.51	56696.9
2836.63	56782.1
2833.75	56662.5
2830.86	56603.4
2827.97	56481.2
2825.09	56473.4
2822.2	56451.4
2819.3	56429.4
2816.41	56550.6
2813.52	56364.6
2810.62	56486.8
2807.72	56356.7
2804.82	56496.7
2801.92	56472.9
2799.02	56673.2
2796.12	56815.3
2793.22	56865.6
2790.31	56922.4
2787.4	57132.2
2784.49	57157.9
2781.58	57117.1
2778.67	57094.2
2775.76	56988.6
2772.84	56988.9
2769.92	56877.7
2767.01	56653.8
2764.09	56666.3
2761.17	56426.2
2758.24	56256.3
2755.32	56092.6
2752.39	55897.2
2749.47	55783.3
2746.54	55851.6
2743.61	55716.4
2740.68	55684.8
2737.75	55523.1
2734.81	55388.1
2731.88	55498.4
2728.94	55392.9
2726	55252.5
2723.06	55056.3
2720.12	54751.5
2717.17	54512.7
2714.23	54332.4
2711.28	54347.1
2708.34	54041.5
2705.39	53876.6
2702.44	53633
2699.48	53538.8
2696.53	53455.8
2693.58	53240.9
2690.62	53153.2
2687.66	53108.2
2684.7	53049.6
2681.74	52906.1
2678.78	52807.4
2675.81	52719.3
2672.85	52500.9
2669.88	52291.6
2666.91	52082.4
2663.94	51845.1
2660.97	51755.7
2658	51847.7
2655.02	51774.6
2652.05	51654.6
2649.07	51608.2
2646.09	51342.5
2643.11	51199.1
2640.13	51161.4
2637.14	50920.2
2634.16	50566.5
2631.17	50279.2
2628.18	50191.6
2625.19	50029.1
2622.2	49986.8
2619.21	49758.3
2616.21	49588.8
2613.22	49125.2
2610.22	49038.6
2607.22	48629.9
2604.22	48430.6
2601.22	48252.2
2598.22	48167.3
2595.21	47984.8
2592.2	47921.4
2589.2	48020.6
2586.19	47979.7
2583.18	47848.6
2580.16	47582.8
2577.15	47569.8
2574.13	47444.6
2571.12	47289.9
2568.1	47052.3
2565.08	46698.2
2562.06	46506.7
2559.03	46248.1
2556.01	45986
2552.98	45759.8
2549.96	45623.4
2546.93	45234.2
2543.9	44989.7
2540.86	44658.1
2537.83	44176.1
2534.79	43931.6
2531.76	43642.5
2528.72	43411.7
2525.68	43218.8
2522.64	42895.8
2519.59	42674.2
2516.55	42418.8
2513.5	42319.1
2510.46	42098.8
2507.41	41827.3
2504.36	41644.7
2501.3	41245.3
2498.25	40935.9
2495.2	40583.5
2492.14	40138.7
2489.08	39808.3
2486.02	39688.1
2482.96	39337.2
2479.9	38861.9
2476.83	38459.7
2473.77	38207.8
2470.7	37934.8
2467.63	37838.1
2464.56	37631.1
2461.49	37544.1
2458.41	37412.3
2455.34	37409.7
2452.26	37125.1
2449.18	36955.6
2446.1	36811.8
2443.02	36628.9
2439.94	36593.1
2436.85	36487.8
2433.77	36283.6
2430.68	36264.4
2427.59	36249.3
2424.5	36213.5
2421.41	36133.1
2418.31	35936.3
2415.22	35812.6
2412.12	35704.5
2409.02	35559.5
2405.92	35216.3
2402.82	34882.8
2399.71	34795.5
2396.61	34550.8
2393.5	34380.1
2390.4	34158.5
2387.29	34023.6
2384.17	33879
2381.06	33656.5
2377.95	33368.3
2374.83	33198.8
2371.72	33030.6
2368.6	32720.9
2365.48	32594.5
2362.35	32317.1
2359.23	32121.4
2356.1	31992.4
2352.98	31913.8
2349.85	31705.1
2346.72	31504.2
2343.59	31277.3
2340.46	31293.3
2337.32	31204.6
2334.18	31063.1
2331.05	30842.5
2327.91	30581
2324.77	30424
2321.63	30279.5
2318.48	30038.6
2315.34	29919.7
2312.19	29748.5
2309.04	29476.9
2305.89	29363.5
2302.74	29184.1
2299.58	29052.9
2296.43	28903.8
2293.27	28785.8
2290.11	28595.4
2286.95	28390.9
2283.79	28152.8
2280.63	27859.5
2277.47	27746.2
2274.3	27541.9
2271.13	27319.7
2267.96	27113.4
2264.79	27055.8
2261.62	26788.6
2258.44	26692.8
2255.27	26334.5
2252.09	26097.3
2248.91	25941.2
2245.73	25781.1
2242.55	25538.3
2239.37	25321.4
2236.18	25178.2
2232.99	25051
2229.81	24986.9
2226.62	24835.4
2223.42	24640
2220.23	24497.2
2217.04	24274.5
2213.84	24118.9
2210.64	23966.6
2207.44	23808
2204.24	23711.6
2201.04	23644
2197.83	23612.2
2194.63	23616.8
2191.42	23360.4
2188.21	23294.7
2185	23127.7
2181.79	22971.4
2178.57	22867.4
2175.36	22624.9
2172.14	22431.6
2168.92	22186.9
2165.7	22097.1
2162.48	22003.8
2159.26	21801.4
2156.03	21568.8
2152.81	21464.2
2149.58	21265.6
2146.35	21050.2
2143.12	20918.6
2139.88	20762.5
2136.65	20543.8
2133.41	20384.6
2130.17	20282.5
2126.93	20164.1
2123.69	20017.9
2120.45	19915.5
2117.2	19797.5
2113.96	19807.3
2110.71	19650.6
2107.46	19604.4
2104.21	19538.5
2100.96	19459.6
2097.7	19302.9
2094.45	19263.7
2091.19	19189.6
2087.93	19166.5
2084.67	19090.5
2081.41	18957.6
2078.14	18770.7
2074.88	18659.4
2071.61	18623.2
2068.34	18418.7
2065.07	18274.1
2061.8	18112.8
2058.52	17994.6
2055.25	17864.7
2051.97	17799.7
2048.69	17642.3
2045.41	17514.3
2042.13	17430.5
2038.85	17384.8
2035.56	17272.8
2032.27	17114.1
2028.99	17060.5
2025.7	16983.1
2022.4	16863.8
2019.11	16797.7
2015.82	16633.6
2012.52	16422
2009.22	16371.9
2005.92	16278.1
2002.62	16075.9
1999.31	15934.2
1996.01	15794.3
1992.7	15594.2
1989.39	15582.1
1986.09	15411.8
1982.77	15363.3
1979.46	15309.8
1976.15	15219.2
1972.83	15095
1969.51	15038.7
1966.19	14911.5
1962.87	14857.8
1959.55	14771.3
1956.22	14716.3
1952.9	14615.9
1949.57	14419.3
1946.24	14323.5
1942.91	14218.1
1939.57	14033.1
1936.24	13925.8
1932.9	13950.9
1929.56	13886.5
1926.23	13784.9
1922.88	13626.1
1919.54	13509.6
1916.2	13344.6
1912.85	13234.1
1909.5	13189.8
1906.15	13096
1902.8	12924.1
1899.45	12863.1
1896.09	12787.1
1892.74	12681.1
1889.38	12591.5
1886.02	12555.1
1882.66	12451.6
1879.3	12388.1
1875.93	12265.7
1872.56	12174.5
1869.2	12157.5
1865.83	12088.6
1862.46	11988.1
1859.08	11901.2
1855.71	11797.7
1852.33	11747.8
1848.95	11767
1845.57	11675.2
1842.19	11522.3
1838.81	11511.5
1835.43	11414.1
1832.04	11374.6
1828.65	11291.1
1825.26	11233.8
1821.87	11218.6
1818.48	11133.6
1815.08	11016.5
1811.69	10945.9
1808.29	10832.9
1804.89	10805.8
1801.49	10778.9
1798.08	10713.8
1794.68	10660.9
1791.27	10673.4
1787.86	10653.4
1784.45	10616.1
1781.04	10571
1777.63	10542.3
1774.21	10521.5
1770.8	10497.4
1767.38	10501.6
1763.96	10453.4
1760.54	10335.2
1757.11	10325.2
1753.69	10259.6
1750.26	10138.2
1746.83	10175
1743.4	10097.5
1739.97	10041.9
1736.54	9878.47
1733.1	9851.58
1729.66	9818.21
1726.22	9710.95
1722.78	9685.63
1719.34	9627.11
1715.9	9574.32
1712.45	9485.79
1709	9473.84
1705.56	9432.05
1702.11	9382.05
1698.65	9370.47
1695.2	9290.26
1691.74	9265.42
1688.28	9322.47
1684.83	9290.89
1681.36	9278.84
1677.9	9276.95
1674.44	9173.32
1670.97	9169.79
1667.5	9173.79
1664.03	9176.53
1660.56	9127.89
1657.09	9131
1653.61	9165.32
1650.14	9111.74
1646.66	9074.95
1643.18	9043.21
1639.7	9045
1636.22	9032.89
1632.73	9061.68
1629.24	9167.16
1625.75	9135.16
1622.26	9177.11
1618.77	9213
1615.28	9214.58
1611.78	9247.89
1608.29	9288
1604.79	9299.58
1601.29	9300.69
1597.78	9318.84
1594.28	9253.63
1590.77	9161.32
1587.27	9102.47
1583.76	9033.42
1580.25	8994.79
1576.73	8968.63
1573.22	8890.9
1569.7	8875.47
1566.19	8811.79
1562.67	8768.05
1559.14	8756.37
1555.62	8697.05
1552.1	8739.37
1548.57	8634.21
1545.04	8591.26
1541.51	8534.74
1537.98	8537.58
1534.45	8550.58
1530.91	8540.37
1527.37	8544.68
1523.83	8512.11
1520.29	8536.47
1516.75	8590.42
1513.21	8539
1509.66	8485.32
1506.11	8529.53
1502.57	8541.37
1499.01	8470.05
1495.46	8396.58
1491.91	8412.42
1488.35	8345.68
1484.79	8331
1481.23	8239.11
1477.67	8179.32
1474.11	8104.47
1470.54	8109.79
1466.98	8058.9
1463.41	7976.05
1459.84	8002.74
1456.26	7980.11
1452.69	8049.63
1449.11	8047.53
1445.54	8039.16
1441.96	7986.16
1438.38	7970.63
1434.79	7933.32
1431.21	7941.42
1427.62	7978.42
1424.03	8037.9
1420.44	7972.16
1416.85	7889.74
1413.26	7898.26
1409.66	7864.1
1406.07	7899.79
1402.47	7843.79
1398.87	7823.37
1395.27	7813.32
1391.66	7755.95
1388.06	7740.79
1384.45	7804.89
1380.84	7782.53
1377.23	7812
1373.62	7780.68
1370	7800.74
1366.38	7783.26
1362.77	7751.05
1359.15	7803.63
1355.52	7822.95
1351.9	7871.84
1348.27	7932.68
1344.65	7925.21
1341.02	7962.26
1337.39	7977.89
1333.76	7978.79
1330.12	7912.05
1326.48	7902.95
1322.85	7934.68
1319.21	7891.32
1315.57	7879.69
1311.92	7820.21
1308.28	7792.69
1304.63	7710.21
1300.98	7696.42
1297.33	7681.21
1293.68	7628.58
1290.02	7593.68
1286.37	7524.05
1282.71	7522.95
1279.05	7427.21
1275.39	7446.79
1271.73	7357.79
1268.06	7340.53
1264.4	7317.84
1260.73	7253.32
1257.06	7212.37
1253.38	7232.68
1249.71	7174.32
1246.03	7164.32
1242.36	7189.79
1238.68	7149.89
1235	7030.42
1231.31	7004.63
1227.63	6977.42
1223.94	6936
1220.25	6884.79
1216.56	6862.16
1212.87	6818.84
1209.18	6760.32
1205.48	6709.21
1201.78	6637.79
1198.08	6626.37
1194.38	6607.68
1190.68	6594.21
1186.98	6510.68
1183.27	6526
1179.56	6519.42
1175.85	6508.63
1172.14	6456.68
1168.42	6489.63
1164.71	6424.95
1160.99	6431.42
1157.27	6365.26
1153.55	6328.53
1149.83	6319.21
1146.1	6359.47
1142.38	6268.63
1138.65	6227.63
1134.92	6201.26
1131.18	6189.79
1127.45	6101.37
1123.71	6019
1119.98	5951.63
1116.24	5900.42
1112.5	5900.16
1108.75	5873.68
1105.01	5883.32
1101.26	5844.26
1097.51	5785.05
1093.76	5782.37
1090.01	5756.26
1086.25	5745.63
1082.5	5781.05
1078.74	5794.05
1074.98	5722
1071.22	5698.05
1067.45	5683.32
1063.69	5670.89
1059.92	5672.1
1056.15	5649.21
1052.38	5661.74
1048.61	5614.58
1044.83	5591.84
1041.06	5547.42
1037.28	5536.84
1033.5	5578.05
1029.72	5592.74
1025.93	5554.37
1022.15	5495.58
1018.36	5531.1
1014.57	5504.16
1010.78	5514.05
1006.99	5459.74
1003.19	5506.05
999.393	5503.68
995.595	5559.95
991.793	5557.63
987.991	5556.32
984.186	5548.74
980.38	5561.42
976.572	5569
972.762	5572.74
968.95	5548.74
965.136	5579
961.32	5561.68
957.503	5603.79
953.683	5542.26
949.862	5545.32
946.039	5563.32
942.214	5564.53
938.387	5593.63
934.558	5609.16
930.727	5547.79
926.895	5512.26
923.06	5481.53
919.224	5480.53
915.386	5488.63
911.545	5461.53
907.703	5494.95
903.859	5471.95
900.014	5547.16
896.166	5552.79
892.316	5515.32
888.465	5532.21
884.612	5539.47
880.756	5536.9
876.899	5494
873.04	5490.37
869.179	5453.16
865.316	5482.53
861.452	5473.95
857.585	5485.58
853.717	5443.58
849.846	5453
845.974	5439.26
842.099	5474.16
838.224	5424.11
834.345	5362.84
830.466	5366.63
826.584	5359
822.7	5298.95
818.815	5343
814.927	5342.1
811.037	5334.84
807.146	5342.26
803.253	5324.53
799.358	5307.53
795.46	5294.1
791.562	5300.32
787.66	5351.37
783.758	5337.05
779.853	5338
775.946	5401.26
772.038	5343.32
768.127	5329.63
764.215	5324.63
760.3	5324.32
756.385	5282.74
752.466	5295.1
748.546	5341.26
744.624	5348.16
740.7	5339.58
736.774	5352.58
732.846	5394.58
728.916	5374.53
724.984	5396.63
721.051	5348.68
717.116	5335
713.178	5270.05
709.239	5317.58
705.297	5335.11
701.354	5322.26
697.409	5311.58
693.462	5318.16
689.513	5299.74
685.562	5276.89
681.609	5299.26
677.654	5288.58
673.698	5261.79
669.739	5265.42
665.778	5302.68
661.815	5282.9
657.851	5342.95
653.884	5313.84
649.916	5355.79
645.946	5364.21
641.973	5388
637.999	5393.32
634.023	5335.1
630.044	5367.63
626.064	5357.37
622.082	5375.11
618.098	5346.42
614.112	5340.79
610.124	5304.16
606.134	5350.74
602.142	5330.58
598.148	5319.95
594.152	5349.11
590.154	5310.11
586.154	5381.42
582.153	5398.05
578.15	5428.37
574.144	5420.32
570.136	5444.16
566.127	5438.95
562.116	5476.84
558.102	5460.16
554.086	5423
550.069	5422.9
546.049	5482.58
542.028	5491.42
538.005	5575.05
533.98	5633.16
529.952	5862.79
525.923	6929.74
521.892	9846.74
517.858	9340.74
513.823	6365.74
509.786	5683.95
505.747	5520.89
501.706	5457.21
497.663	5429.79
493.618	5436.79
489.571	5349.37
485.522	5336.53
481.471	5431.42
477.418	5376.26
473.362	5378.1
469.306	5420.84
465.247	5415.58
461.186	5348.05
457.122	5409.89
453.058	5389.63
448.991	5315.47
444.922	5304.63
440.851	5290.9
436.778	5350.89
432.703	5337.16
428.627	5361.16
424.547	5387.21
420.466	5378.63
416.384	5382.05
412.298	5407.63
408.211	5446.9
404.122	5419
400.031	5419.74
395.939	5504.16
391.844	5478.37
387.747	5474.74
383.648	5443.63
379.547	5404.37
375.444	5406.53
371.339	5390.79
367.232	5394.42
363.123	5344
359.012	5345.84
354.898	5324.79
350.783	5341.05
346.666	5347.21
342.548	5370.37
338.426	5337.32
334.303	5398.79
330.178	5363.37
326.05	5385.16
321.922	5438.11
317.79	5452.95
313.657	5457.47
309.522	5510.47
305.385	5550.84
301.245	5488.95
297.104	5426.05
292.96	5352.63
288.815	5301.21
284.668	5305.47
280.518	5214.53
276.367	5258.37
272.213	5203.68
268.058	5219.53
263.9	5214.16
259.74	5241.32
255.578	5248.16
251.415	5283.74
247.248	5233
243.081	5266.42
238.911	5265.58
234.739	5269.32
230.565	5247.53
226.389	5213.84
222.211	5134.32
218.031	5131.58
213.848	5004.21
209.664	4963.42
205.479	4962.37
201.29	4874.16
197.1	4837.58
192.907	4833.58
188.712	4790.21
184.516	4799.16
180.317	4830.68
176.117	4848.89
171.914	4921.37
167.71	4966.11
163.503	5052.21
159.293	5096.47
155.083	5062.95
150.87	5039.79
146.655	5022.05
142.438	5088.32
138.218	5011.53
133.997	5058.58
129.773	5101.63
125.548	5186.11
121.321	5249.84
117.091	5226
112.86	5294.69
108.626	5244.1
104.39	5267.11
100.152	5185.1
95.9117	5099.37
91.6705	4841.79
87.4255	4201
85.3029	3638.05