File: RAMAN/Raman_Ilum/MoS2_NS_Sodio.txt
3495.35	98.9474
3492.81	113.526
3490.26	124
3487.71	107.895
3485.17	141.789
3482.62	127.474
3480.06	130.526
3477.51	148.421
3474.96	146.789
3472.4	144.526
3469.85	147.579
3467.29	164.474
3464.73	171.105
3462.17	175.842
3459.61	190.053
3457.04	187.263
3454.48	196.684
3451.91	184.789
3449.35	205.368
3446.78	230
3444.21	213.263
3441.64	210.895
3439.07	228.316
3436.49	222.632
3433.92	230.632
3431.34	228.368
3428.76	260.579
3426.18	247.211
3423.6	268.632
3421.02	251.895
3418.44	265.526
3415.85	245.263
3413.27	268.263
3410.68	262.421
3408.09	267.421
3405.5	286.579
3402.91	257.368
3400.32	290.895
3397.72	276.211
3395.13	306.684
3392.53	278.474
3389.93	307.947
3387.33	329.21
3384.73	330.421
3382.13	310.053
3379.53	322.105
3376.92	320.947
3374.32	330.158
3371.71	326.842
3369.1	312.632
3366.49	316.316
3363.88	320.895
3361.26	333.053
3358.65	353.684
3356.03	346.947
3353.42	339.684
3350.8	373.895
3348.18	364.421
3345.56	371.368
3342.93	382.684
3340.31	376.579
3337.69	377.053
3335.06	390.158
3332.43	383.789
3329.8	400.737
3327.17	379.895
3324.54	420.211
3321.91	399.526
3319.27	395.526
3316.63	413.737
3314	424.211
3311.36	405.842
3308.72	400.895
3306.08	394.474
3303.43	409.263
3300.79	420.316
3298.14	434.789
3295.5	444.632
3292.85	449.053
3290.2	469.947
3287.55	499.684
3284.89	514.105
3282.24	559.211
3279.58	573.211
3276.93	625.053
3274.27	661.053
3271.61	682.263
3268.95	733.053
3266.29	767.895
3263.62	820.684
3260.96	871.368
3258.29	913.737
3255.62	935.105
3252.95	971.579
3250.28	1003.79
3247.61	1026.21
3244.94	1050.53
3242.26	1071.53
3239.59	1085.63
3236.91	1083.68
3234.23	1092.32
3231.55	1125.37
3228.87	1118.63
3226.19	1102.26
3223.5	1125
3220.82	1131.05
3218.13	1118.79
3215.44	1159.53
3212.75	1144.58
3210.06	1169.84
3207.37	1174.47
3204.67	1205.58
3201.98	1184.11
3199.28	1220.58
3196.58	1241.63
3193.88	1235
3191.18	1253.42
3188.48	1276.11
3185.78	1281.95
3183.07	1303.05
3180.36	1332.11
3177.66	1352.53
3174.95	1359.26
3172.24	1384.53
3169.52	1386.42
3166.81	1395.37
3164.1	1428.89
3161.38	1454.63
3158.66	1464.37
3155.94	1485.89
3153.22	1498.26
3150.5	1509.79
3147.78	1538.32
3145.05	1520.89
3142.32	1566.84
3139.6	1576.42
3136.87	1582.05
3134.14	1569.26
3131.41	1594.32
3128.67	1590.32
3125.94	1616.05
3123.2	1605.47
3120.47	1617.95
3117.73	1608.32
3114.99	1642.16
3112.24	1638.11
3109.5	1666.11
3106.76	1669.47
3104.01	1666.84
3101.26	1688.89
3098.51	1662.79
3095.76	1687.58
3093.01	1704.95
3090.26	1703.11
3087.5	1708.58
3084.75	1721.89
3081.99	1733.53
3079.23	1746.79
3076.47	1731.32
3073.71	1768.37
3070.95	1763.79
3068.18	1781.16
3065.42	1776.95
3062.65	1772.32
3059.88	1790.05
3057.11	1796.95
3054.34	1777.68
3051.57	1784.26
3048.8	1795.79
3046.02	1804.68
3043.24	1801
3040.46	1779.11
3037.68	1813.53
3034.9	1800.11
3032.12	1817.89
3029.34	1826.42
3026.55	1840.42
3023.76	1832.63
3020.97	1862.84
3018.18	1863.79
3015.39	1884.42
3012.6	1887.47
3009.81	1914.95
3007.01	1911.11
3004.21	1925.47
3001.41	1924.42
2998.61	1954.11
2995.81	1953.47
2993.01	1991.53
2990.21	1979.53
2987.4	2002.37
2984.59	2016.42
2981.78	2013.63
2978.97	2008.42
2976.16	2012.79
2973.35	2067.95
2970.54	2026.42
2967.72	2050.58
2964.9	2063.84
2962.08	2075.37
2959.26	2080.58
2956.44	2071.89
2953.62	2076.79
2950.8	2085.79
2947.97	2084.95
2945.14	2073.58
2942.31	2092
2939.48	2076.37
2936.65	2095.42
2933.82	2096.16
2930.98	2082.32
2928.15	2100.32
2925.31	2109.53
2922.47	2124.32
2919.63	2115.21
2916.79	2083.05
2913.95	2119.74
2911.1	2105.37
2908.26	2110.89
2905.41	2116.11
2902.56	2130.26
2899.71	2133.26
2896.86	2163.58
2894	2168.11
2891.15	2156.16
2888.29	2151.11
2885.44	2134.63
2882.58	2146.68
2879.72	2135.32
2876.85	2168.68
2873.99	2183.63
2871.12	2166.37
2868.26	2183.63
2865.39	2165.11
2862.52	2193.53
2859.65	2154.37
2856.78	2181.53
2853.9	2159.84
2851.03	2141.11
2848.15	2127.89
2845.27	2163.79
2842.39	2128.53
2839.51	2122.89
2836.63	2131.74
2833.75	2098.32
2830.86	2129
2827.97	2129.32
2825.09	2127.63
2822.2	2133.26
2819.3	2116.05
2816.41	2124.05
2813.52	2091.63
2810.62	2110.47
2807.72	2100.32
2804.82	2120.63
2801.92	2091.47
2799.02	2135.05
2796.12	2129.58
2793.22	2097.32
2790.31	2115.16
2787.4	2129.95
2784.49	2127
2781.58	2141
2778.67	2141.58
2775.76	2112.53
2772.84	2136.11
2769.92	2112.11
2767.01	2110.58
2764.09	2125.47
2761.17	2115.11
2758.24	2097.21
2755.32	2082.84
2752.39	2097.37
2749.47	2093.26
2746.54	2089.42
2743.61	2092.47
2740.68	2086.63
2737.75	2081.42
2734.81	2071.42
2731.88	2079.37
2728.94	2062.68
2726	2084.68
2723.06	2049.11
2720.12	2050.32
2717.17	2029.37
2714.23	2030.95
2711.28	2020
2708.34	2044.47
2705.39	2011.74
2702.44	2006.84
2699.48	1988.89
2696.53	1986.26
2693.58	1950.95
2690.62	1990.16
2687.66	1947.84
2684.7	1970.79
2681.74	1965.32
2678.78	1952.42
2675.81	1971.42
2672.85	1953.26
2669.88	1952.26
2666.91	1968.11
2663.94	1926.74
2660.97	1925.74
2658	1950.16
2655.02	1946.26
2652.05	1924.47
2649.07	1935
2646.09	1910.84
2643.11	1927.68
2640.13	1923.47
2637.14	1902.42
2634.16	1891.47
2631.17	1892.05
2628.18	1852.79
2625.19	1861.79
2622.2	1858.68
2619.21	1855.63
2616.21	1842.37
2613.22	1834.68
2610.22	1850.37
2607.22	1791.53
2604.22	1817.68
2601.22	1805.68
2598.22	1807.84
2595.21	1810.16
2592.2	1798.58
2589.2	1798.63
2586.19	1767.95
2583.18	1803.79
2580.16	1781
2577.15	1768.58
2574.13	1771.79
2571.12	1756.05
2568.1	1744.95
2565.08	1746.63
2562.06	1740.05
2559.03	1732.63
2556.01	1735.53
2552.98	1721.05
2549.96	1703.95
2546.93	1689.32
2543.9	1695.74
2540.86	1663
2537.83	1638.47
2534.79	1668.74
2531.76	1639.53
2528.72	1653.21
2525.68	1630.84
2522.64	1623.37
2519.59	1599.95
2516.55	1593.37
2513.5	1592.53
2510.46	1567.58
2507.41	1568.47
2504.36	1549.58
2501.3	1561.16
2498.25	1549.89
2495.2	1539
2492.14	1503.95
2489.08	1515.74
2486.02	1500.37
2482.96	1490.68
2479.9	1459.84
2476.83	1453
2473.77	1448.11
2470.7	1435.32
2467.63	1454.32
2464.56	1429.32
2461.49	1442.58
2458.41	1417.89
2455.34	1432.11
2452.26	1417.53
2449.18	1420.79
2446.1	1409.74
2443.02	1376.21
2439.94	1390.89
2436.85	1411.95
2433.77	1358.11
2430.68	1384.68
2427.59	1377.42
2424.5	1357.53
2421.41	1381.74
2418.31	1354.42
2415.22	1356.32
2412.12	1362.53
2409.02	1358.84
2405.92	1353.11
2402.82	1323.68
2399.71	1327.05
2396.61	1311.42
2393.5	1324.89
2390.4	1291.89
2387.29	1308.11
2384.17	1295.95
2381.06	1309.21
2377.95	1267.21
2374.83	1270.37
2371.72	1269.21
2368.6	1265.47
2365.48	1253.89
2362.35	1238.74
2359.23	1253.74
2356.1	1225.63
2352.98	1250.42
2349.85	1204.68
2346.72	1221.84
2343.59	1197.05
2340.46	1215.74
2337.32	1195.05
2334.18	1217.74
2331.05	1234.63
2327.91	1224.53
2324.77	1210.58
2321.63	1171.47
2318.48	1171.58
2315.34	1188.58
2312.19	1144.95
2309.04	1153.11
2305.89	1163.05
2302.74	1141.89
2299.58	1148.79
2296.43	1155.89
2293.27	1147.95
2290.11	1123.58
2286.95	1131.32
2283.79	1106.89
2280.63	1105.26
2277.47	1100.26
2274.3	1091.79
2271.13	1084.05
2267.96	1061.95
2264.79	1083.58
2261.62	1055.89
2258.44	1053.47
2255.27	1035.63
2252.09	1032.32
2248.91	1023
2245.73	1022.74
2242.55	1043.37
2239.37	1024.21
2236.18	1010.05
2232.99	995.105
2229.81	1007.37
2226.62	999.684
2223.42	1000.11
2220.23	1007.63
2217.04	965.474
2213.84	982.842
2210.64	974.053
2207.44	958.105
2204.24	968.579
2201.04	974.263
2197.83	953.789
2194.63	944.895
2191.42	968.368
2188.21	950.474
2185	950.474
2181.79	927.632
2178.57	942.474
2175.36	927.632
2172.14	926.053
2168.92	925.316
2165.7	900.684
2162.48	928.263
2159.26	899.053
2156.03	883.684
2152.81	917.474
2149.58	901.053
2146.35	862.737
2143.12	872.684
2139.88	882.368
2136.65	885
2133.41	855.579
2130.17	854.579
2126.93	837.421
2123.69	824.895
2120.45	842.105
2117.2	833.526
2113.96	828.053
2110.71	843.158
2107.46	844.158
2104.21	822.737
2100.96	823.579
2097.7	836
2094.45	812.421
2091.19	811.105
2087.93	820.895
2084.67	833.895
2081.41	819.053
2078.14	807.474
2074.88	793
2071.61	803.842
2068.34	797.579
2065.07	807.105
2061.8	801.684
2058.52	804.684
2055.25	801.421
2051.97	777.474
2048.69	787.21
2045.41	775.895
2042.13	790.632
2038.85	768.421
2035.56	763.947
2032.27	732.947
2028.99	773.579
2025.7	751.632
2022.4	747.737
2019.11	750.632
2015.82	740.947
2012.52	733.842
2009.22	737.263
2005.92	735.21
2002.62	714.211
1999.31	720
1996.01	710.579
1992.7	699.316
1989.39	705.947
1986.09	722.947
1982.77	698.737
1979.46	700.789
1976.15	714.316
1972.83	706.211
1969.51	705.632
1966.19	684.895
1962.87	681.421
1959.55	687.211
1956.22	699.947
1952.9	694.789
1949.57	700.526
1946.24	687.684
1942.91	674.474
1939.57	676.789
1936.24	659.947
1932.9	674.947
1929.56	658.579
1926.23	664.842
1922.88	658.895
1919.54	635.421
1916.2	659
1912.85	647.316
1909.5	655.368
1906.15	632.632
1902.8	631
1899.45	631.526
1896.09	625.579
1892.74	625.316
1889.38	627.421
1886.02	641.684
1882.66	630.421
1879.3	610.632
1875.93	615.158
1872.56	606.105
1869.2	612.737
1865.83	613.368
1862.46	605.789
1859.08	600.368
1855.71	616.789
1852.33	587.263
1848.95	608.895
1845.57	591.789
1842.19	586.579
1838.81	607.842
1835.43	601.789
1832.04	585.684
1828.65	595.789
1825.26	590.526
1821.87	582.368
1818.48	573.368
1815.08	565.632
1811.69	558.737
1808.29	559.895
1804.89	564.526
1801.49	576.947
1798.08	579.895
1794.68	571.737
1791.27	588.158
1787.86	585.842
1784.45	575.684
1781.04	575.842
1777.63	569.79
1774.21	570.316
1770.8	564.737
1767.38	576.211
1763.96	588.947
1760.54	557.158
1757.11	560.632
1753.69	568.105
1750.26	545.421
1746.83	561.053
1743.4	568
1739.97	552.368
1736.54	541.316
1733.1	570.526
1729.66	566.421
1726.22	553.789
1722.78	563.526
1719.34	535.316
1715.9	546.684
1712.45	552.947
1709	563.842
1705.56	549.158
1702.11	542.579
1698.65	560.263
1695.2	533.895
1691.74	523.632
1688.28	546.632
1684.83	553.053
1681.36	550.263
1677.9	552.158
1674.44	541.684
1670.97	557.842
1667.5	545.895
1664.03	539.737
1660.56	543.842
1657.09	526.316
1653.61	554.158
1650.14	541.474
1646.66	549.053
1643.18	546.579
1639.7	529.211
1636.22	523.895
1632.73	532.105
1629.24	530.158
1625.75	535.316
1622.26	518.737
1618.77	539.053
1615.28	550.632
1611.78	543.158
1608.29	518.053
1604.79	550.211
1601.29	534.421
1597.78	544.053
1594.28	539.632
1590.77	518.263
1587.27	523.789
1583.76	533.579
1580.25	501.158
1576.73	519.789
1573.22	512.895
1569.7	525.368
1566.19	506.211
1562.67	512.105
1559.14	519.947
1555.62	525.947
1552.1	563.316
1548.57	498.526
1545.04	522.895
1541.51	507.737
1537.98	506.789
1534.45	510.105
1530.91	511.263
1527.37	506.105
1523.83	498.632
1520.29	517.474
1516.75	526.421
1513.21	521.368
1509.66	531.579
1506.11	522.737
1502.57	527.526
1499.01	539.632
1495.46	528.895
1491.91	538.368
1488.35	522.526
1484.79	549.947
1481.23	536.105
1477.67	523.316
1474.11	529.263
1470.54	507.947
1466.98	516.579
1463.41	506.421
1459.84	501.737
1456.26	501.579
1452.69	511.316
1449.11	511.737
1445.54	531.368
1441.96	519.895
1438.38	514.526
1434.79	511.737
1431.21	502.632
1427.62	529.684
1424.03	511.053
1420.44	529.263
1416.85	513.421
1413.26	522.842
1409.66	505.316
1406.07	514.421
1402.47	507.632
1398.87	513.263
1395.27	521.737
1391.66	532.526
1388.06	509.316
1384.45	523.263
1380.84	496.421
1377.23	524.421
1373.62	513.263
1370	512
1366.38	511
1362.77	501.421
1359.15	525.632
1355.52	508.053
1351.9	524.632
1348.27	523.842
1344.65	521.526
1341.02	532.105
1337.39	520.369
1333.76	531.737
1330.12	530.316
1326.48	510.368
1322.85	540.211
1319.21	534.158
1315.57	517.895
1311.92	514.842
1308.28	526.632
1304.63	522.632
1300.98	505.526
1297.33	535.474
1293.68	502.947
1290.02	512.684
1286.37	504.579
1282.71	524.947
1279.05	495.158
1275.39	519.211
1271.73	506.053
1268.06	511.316
1264.4	505.842
1260.73	522.211
1257.06	522.211
1253.38	523.684
1249.71	521.421
1246.03	524.21
1242.36	539.421
1238.68	525.737
1235	524.158
1231.31	526.737
1227.63	526.526
1223.94	515.211
1220.25	528.895
1216.56	510.737
1212.87	516.263
1209.18	517.684
1205.48	550.474
1201.78	524.895
1198.08	519.579
1194.38	535.105
1190.68	539.684
1186.98	516.105
1183.27	529.842
1179.56	527.474
1175.85	534.053
1172.14	515.632
1168.42	552.632
1164.71	525.105
1160.99	541.684
1157.27	549.263
1153.55	545.895
1149.83	547.895
1146.1	542.105
1142.38	526.684
1138.65	546.474
1134.92	542.684
1131.18	553.474
1127.45	552
1123.71	532.263
1119.98	526.053
1116.24	510.632
1112.5	539.158
1108.75	517.842
1105.01	552.789
1101.26	527.105
1097.51	529.789
1093.76	535.632
1090.01	550.316
1086.25	549.947
1082.5	547
1078.74	558.842
1074.98	537.158
1071.22	563.895
1067.45	573.368
1063.69	566.684
1059.92	564.526
1056.15	576.789
1052.38	579.789
1048.61	591
1044.83	592.368
1041.06	567.368
1037.28	582.421
1033.5	595.526
1029.72	591.316
1025.93	595.632
1022.15	585.105
1018.36	609.789
1014.57	601.632
1010.78	612.421
1006.99	624.316
1003.19	676
999.393	779.579
995.595	1078.16
991.793	1322.79
987.991	1099.95
984.186	831.105
980.38	747.895
976.572	713.632
972.762	716.421
968.95	710.263
965.136	700
961.32	677.316
957.503	715.526
953.683	686.263
949.862	703.684
946.039	689.737
942.214	711.579
938.387	729.895
934.558	733.474
930.727	732.526
926.895	750.211
923.06	739.684
919.224	759
915.386	778.579
911.545	755.211
907.703	790.526
903.859	792.368
900.014	822.842
896.166	807.632
892.316	823.947
888.465	814.105
884.612	839.895
880.756	835.632
876.899	849.211
873.04	849.684
869.179	869.053
865.316	885.684
861.452	903.842
857.585	947.105
853.717	972.158
849.846	1016.21
845.974	1065.05
842.099	1163.16
838.224	1255.58
834.345	1407.21
830.466	1661.95
826.584	2031.11
822.7	2417.79
818.815	2600.79
814.927	2418.68
811.037	2072.95
807.146	1704.26
803.253	1481.32
799.358	1333.53
795.46	1246.79
791.562	1160.11
787.66	1170.37
783.758	1115.53
779.853	1081.42
775.946	1083.47
772.038	1040.11
768.127	1026.58
764.215	1016.32
760.3	998.632
756.385	978.947
752.466	973.316
748.546	972.632
744.624	991.053
740.7	994.947
736.774	1012.95
732.846	1037
728.916	1026.11
724.984	1052
721.051	1028.89
717.116	1021.53
713.178	996.632
709.239	982
705.297	959.211
701.354	946.21
697.409	934.263
693.462	947.105
689.513	949.316
685.562	934.211
681.609	975.316
677.654	976.632
673.698	1019.89
669.739	1042.74
665.778	1112.26
661.815	1116.89
657.851	1093.05
653.884	1016.79
649.916	978.842
645.946	950.947
641.973	947.474
637.999	940.053
634.023	910.211
630.044	903.842
626.064	895.263
622.082	904.684
618.098	883.421
614.112	887.947
610.124	876.737
606.134	888.211
602.142	875.579
598.148	874
594.152	862.263
590.154	859.842
586.154	886
582.153	882.526
578.15	889
574.144	875.789
570.136	878.526
566.127	887.684
562.116	881.263
558.102	887
554.086	859.211
550.069	852.526
546.049	871.842
542.028	875.737
538.005	891.474
533.98	904.895
529.952	909.368
525.923	1051
521.892	1407.95
517.858	1310.68
513.823	974.526
509.786	927.842
505.747	898.316
501.706	911.368
497.663	918.368
493.618	940.474
489.571	946.316
485.522	934.316
481.471	947.158
477.418	941.895
473.362	971.632
469.306	977.789
465.247	1000.95
461.186	991.263
457.122	1001.95
453.058	1004.47
448.991	1007.11
444.922	990.895
440.851	982.421
436.778	1000.26
432.703	1020.89
428.627	1033.84
424.547	1060.47
420.466	1100.32
416.384	1130.58
412.298	1146.63
408.211	1133.37
404.122	1116.89
400.031	1110.95
395.939	1146.95
391.844	1141.53
387.747	1206.11
383.648	1266.32
379.547	1350.63
375.444	1373.79
371.339	1348.16
367.232	1323.11
363.123	1310.16
359.012	1290.42
354.898	1244.21
350.783	1254
346.666	1272.47
342.548	1349.95
338.426	1439.16
334.303	1473.53
330.178	1373.95
326.05	1338.21
321.922	1356.89
317.79	1377.37
313.657	1394.84
309.522	1406.47
305.385	1424
301.245	1467.16
297.104	1573.74
292.96	1796.95
288.815	2096.32
284.668	2358.95
280.518	2369.89
276.367	2099.63
272.213	1774.63
268.058	1570.21
263.9	1468.63
259.74	1421.47
255.578	1423.16
251.415	1428.26
247.248	1410.68
243.081	1475.32
238.911	1499.26
234.739	1487.05
230.565	1422.53
226.389	1408.84
222.211	1363.47
218.031	1388.11
213.848	1343.47
209.664	1321.37
205.479	1337.47
201.29	1363.89
197.1	1387.26
192.907	1314.05
188.712	1217.68
184.516	1193.68
180.317	1168.47
176.117	1177.58
171.914	1232.26
167.71	1240.68
163.503	1336.53
159.293	1494.89
155.083	1764.74
150.87	1961.68
146.655	1940.37
142.438	1739.79
138.218	1551.95
133.997	1585.74
129.773	1864.42
125.548	1978.79
121.321	2082.95
117.091	2165.95
112.86	2102.16
108.626	1860
104.39	1680
100.152	1700.42
95.9117	1683.68
91.6705	1637.47
87.4255	1477.63
85.3029	1279.26