File: FTIR/ILUM_29-10-2024/HCS_MoS2_1.txt
##TITLE=No Description
##DATA TYPE=INFRARED SPECTRUM
##XUNITS=1/CM
##YUNITS=%T
399.452  	82.013
402.326  	86.8156
405.2  	88.1836
408.073  	88.1079
410.947  	86.2819
413.821  	87.3174
416.695  	87.2686
419.568  	85.1634
422.442  	86.7042
425.316  	86.4119
428.19  	87.092
431.063  	86.4824
433.937  	86.9546
436.811  	87.2104
439.685  	87.4967
442.558  	86.7266
445.432  	85.7211
448.306  	86.5638
451.18  	86.7701
454.053  	86.4112
456.927  	87.3957
459.801  	87.0709
462.675  	87.1586
465.548  	86.5588
468.422  	86.6795
471.296  	86.172
474.17  	86.5855
477.043  	87.1809
479.917  	86.728
482.791  	86.8665
485.665  	86.9451
488.538  	86.7474
491.412  	86.8915
494.286  	86.7074
497.16  	86.5536
500.034  	86.4049
502.907  	86.444
505.781  	86.931
508.655  	86.2338
511.529  	86.6133
514.402  	86.6087
517.276  	86.8503
520.15  	86.8562
523.024  	87.0608
525.897  	86.6703
528.771  	86.4755
531.645  	86.9091
534.519  	86.8855
537.392  	86.9047
540.266  	86.819
543.14  	86.864
546.014  	86.6393
548.887  	86.7391
551.761  	86.884
554.635  	86.6608
557.509  	86.8469
560.382  	87.029
563.256  	86.8873
566.13  	86.9174
569.004  	87.205
571.877  	87.3263
574.751  	87.0523
577.625  	87.1141
580.499  	87.0088
583.372  	87.0308
586.246  	87.1053
589.12  	87.2507
591.994  	87.2572
594.867  	87.3138
597.741  	87.3568
600.615  	87.4368
603.489  	87.315
606.362  	87.2448
609.236  	87.3763
612.11  	87.4401
614.984  	87.444
617.858  	87.565
620.731  	87.6172
623.605  	87.6557
626.479  	87.7172
629.353  	87.6719
632.226  	87.7243
635.1  	87.7603
637.974  	87.9308
640.848  	87.8215
643.721  	87.8781
646.595  	87.9288
649.469  	88.0027
652.343  	88.1224
655.216  	88.176
658.09  	88.1775
660.964  	88.2632
663.838  	88.3896
666.711  	88.5416
669.585  	88.3723
672.459  	88.403
675.333  	88.6229
678.206  	88.6522
681.08  	88.692
683.954  	88.6694
686.828  	88.7773
689.701  	88.7874
692.575  	88.9662
695.449  	89.0297
698.323  	89.0227
701.196  	89.1616
704.07  	89.1547
706.944  	89.134
709.818  	89.3093
712.691  	89.345
715.565  	89.2736
718.439  	89.3098
721.313  	89.386
724.186  	89.492
727.06  	89.5957
729.934  	89.5333
732.808  	89.6189
735.681  	89.5395
738.555  	89.6462
741.429  	89.586
744.303  	89.629
747.177  	89.69
750.05  	89.7327
752.924  	89.7907
755.798  	89.7055
758.672  	89.7385
761.545  	89.7918
764.419  	89.8654
767.293  	89.8315
770.167  	89.995
773.04  	89.9831
775.914  	90.0084
778.788  	90.0902
781.662  	90.2314
784.535  	90.1681
787.409  	90.2926
790.283  	90.2992
793.157  	90.3497
796.03  	90.3744
798.904  	90.3676
801.778  	90.4141
804.652  	90.4753
807.525  	90.5434
810.399  	90.6093
813.273  	90.5282
816.147  	90.6966
819.02  	90.6686
821.894  	90.716
824.768  	90.7874
827.642  	90.8792
830.515  	90.9837
833.389  	91.0488
836.263  	91.134
839.137  	91.3004
842.01  	91.3575
844.884  	91.4798
847.758  	91.5892
850.632  	91.7036
853.505  	91.7834
856.379  	91.8747
859.253  	91.987
862.127  	92.0475
865.001  	92.192
867.874  	92.3027
870.748  	92.3988
873.622  	92.4925
876.496  	92.6096
879.369  	92.668
882.243  	92.8058
885.117  	92.9532
887.991  	93.0345
890.864  	93.0962
893.738  	93.2582
896.612  	93.3438
899.486  	93.4494
902.359  	93.639
905.233  	93.7229
908.107  	93.7637
910.981  	93.8795
913.854  	93.9324
916.728  	94.028
919.602  	94.118
922.476  	94.1812
925.349  	94.2665
928.223  	94.302
931.097  	94.3769
933.971  	94.4052
936.844  	94.4401
939.718  	94.5079
942.592  	94.4912
945.466  	94.5293
948.339  	94.5538
951.213  	94.5222
954.087  	94.6259
956.961  	94.5864
959.834  	94.5881
962.708  	94.5498
965.582  	94.5788
968.456  	94.6253
971.329  	94.5335
974.203  	94.5738
977.077  	94.5604
979.951  	94.5554
982.824  	94.5859
985.698  	94.5157
988.572  	94.5065
991.446  	94.3981
994.32  	94.4038
997.193  	94.3091
1000.07  	94.3135
1002.94  	94.2078
1005.81  	94.2264
1008.69  	94.1055
1011.56  	94.0358
1014.44  	93.9657
1017.31  	93.8728
1020.18  	93.7732
1023.06  	93.6918
1025.93  	93.6066
1028.8  	93.5463
1031.68  	93.4236
1034.55  	93.3174
1037.43  	93.288
1040.3  	93.1464
1043.17  	93.0554
1046.05  	92.9613
1048.92  	92.8751
1051.79  	92.7909
1054.67  	92.7276
1057.54  	92.6435
1060.42  	92.6717
1063.29  	92.5864
1066.16  	92.5269
1069.04  	92.5561
1071.91  	92.5264
1074.78  	92.4942
1077.66  	92.4495
1080.53  	92.4507
1083.41  	92.4411
1086.28  	92.4134
1089.15  	92.3738
1092.03  	92.2778
1094.9  	92.2552
1097.77  	92.1767
1100.65  	92.1118
1103.52  	92.0339
1106.4  	91.9087
1109.27  	91.8468
1112.14  	91.7841
1115.02  	91.6482
1117.89  	91.5474
1120.76  	91.4086
1123.64  	91.2876
1126.51  	91.1108
1129.39  	91.0223
1132.26  	90.9409
1135.13  	90.8266
1138.01  	90.654
1140.88  	90.5351
1143.75  	90.4042
1146.63  	90.2493
1149.5  	90.136
1152.38  	89.9409
1155.25  	89.7821
1158.12  	89.671
1161  	89.5185
1163.87  	89.4287
1166.74  	89.3425
1169.62  	89.2149
1172.49  	89.1237
1175.37  	88.9901
1178.24  	88.8981
1181.11  	88.7994
1183.99  	88.7352
1186.86  	88.6153
1189.73  	88.4871
1192.61  	88.3875
1195.48  	88.3225
1198.36  	88.1818
1201.23  	88.0758
1204.1  	87.9637
1206.98  	87.886
1209.85  	87.7797
1212.72  	87.6638
1215.6  	87.5839
1218.47  	87.515
1221.35  	87.4119
1224.22  	87.3085
1227.09  	87.2768
1229.97  	87.1935
1232.84  	87.0981
1235.72  	87.0574
1238.59  	87.0039
1241.46  	86.968
1244.34  	86.9309
1247.21  	86.892
1250.08  	86.871
1252.96  	86.8355
1255.83  	86.8067
1258.71  	86.7642
1261.58  	86.7572
1264.45  	86.7528
1267.33  	86.7229
1270.2  	86.7017
1273.07  	86.6999
1275.95  	86.6885
1278.82  	86.6834
1281.7  	86.6551
1284.57  	86.6834
1287.44  	86.6467
1290.32  	86.6678
1293.19  	86.6973
1296.06  	86.701
1298.94  	86.7674
1301.81  	86.7788
1304.69  	86.821
1307.56  	86.8163
1310.43  	86.8399
1313.31  	86.8466
1316.18  	86.8876
1319.05  	86.8912
1321.93  	86.9562
1324.8  	86.9945
1327.68  	87.0054
1330.55  	87.016
1333.42  	87.0204
1336.3  	87.0159
1339.17  	86.9725
1342.04  	87.0368
1344.92  	87.0622
1347.79  	87.1107
1350.67  	87.0899
1353.54  	87.1051
1356.41  	87.0979
1359.29  	87.1573
1362.16  	87.1122
1365.03  	87.1673
1367.91  	87.1812
1370.78  	87.2381
1373.66  	87.2063
1376.53  	87.2651
1379.4  	87.3206
1382.28  	87.464
1385.15  	87.5445
1388.02  	87.6257
1390.9  	87.7371
1393.77  	87.7962
1396.65  	87.8591
1399.52  	87.9283
1402.39  	88.0262
1405.27  	88.0259
1408.14  	88.1247
1411.01  	88.1129
1413.89  	88.1404
1416.76  	88.0991
1419.64  	88.2861
1422.51  	88.1472
1425.38  	88.2203
1428.26  	88.2493
1431.13  	88.2651
1434  	88.2135
1436.88  	88.2787
1439.75  	88.2922
1442.63  	88.3257
1445.5  	88.2928
1448.37  	88.3381
1451.25  	88.3489
1454.12  	88.3579
1456.99  	88.4713
1459.87  	88.4256
1462.74  	88.4697
1465.62  	88.4594
1468.49  	88.5537
1471.36  	88.5795
1474.24  	88.5717
1477.11  	88.5306
1479.98  	88.6225
1482.86  	88.6149
1485.73  	88.6424
1488.61  	88.5756
1491.48  	88.5453
1494.35  	88.5604
1497.23  	88.5256
1500.1  	88.5497
1502.97  	88.5172
1505.85  	88.552
1508.72  	88.3045
1511.6  	88.3415
1514.47  	88.3349
1517.34  	88.3144
1520.22  	88.3261
1523.09  	88.2603
1525.96  	88.1359
1528.84  	88.0843
1531.71  	88.0371
1534.59  	87.9093
1537.46  	87.8758
1540.33  	87.7945
1543.21  	87.5345
1546.08  	87.3927
1548.95  	87.23
1551.83  	87.0732
1554.7  	86.9403
1557.58  	86.8074
1560.45  	86.5736
1563.32  	86.4099
1566.2  	86.2933
1569.07  	86.1736
1571.94  	85.9913
1574.82  	85.8559
1577.69  	85.7677
1580.57  	85.5974
1583.44  	85.5208
1586.31  	85.3896
1589.19  	85.3907
1592.06  	85.1694
1594.93  	85.1759
1597.81  	85.1714
1600.68  	85.3402
1603.56  	85.3042
1606.43  	85.333
1609.3  	85.3682
1612.18  	85.5883
1615.05  	85.713
1617.92  	85.9469
1620.8  	85.9965
1623.67  	86.3166
1626.55  	86.4686
1629.42  	86.7734
1632.29  	87.0849
1635.17  	87.4385
1638.04  	87.7496
1640.91  	87.9475
1643.79  	88.3801
1646.66  	88.8064
1649.54  	89.0839
1652.41  	89.4632
1655.28  	89.828
1658.16  	90.162
1661.03  	90.515
1663.9  	90.7811
1666.78  	91.1756
1669.65  	91.4083
1672.53  	91.6883
1675.4  	91.9584
1678.27  	92.3104
1681.15  	92.5175
1684.02  	92.7503
1686.89  	92.8611
1689.77  	93.1075
1692.64  	93.3287
1695.52  	93.7247
1698.39  	93.7761
1701.26  	94.0382
1704.14  	94.1608
1707.01  	94.3283
1709.88  	94.5926
1712.76  	94.877
1715.63  	95.0748
1718.51  	95.1741
1721.38  	95.4042
1724.25  	95.7068
1727.13  	96.0306
1730  	96.1324
1732.87  	96.304
1735.75  	96.4358
1738.62  	96.6476
1741.5  	96.7933
1744.37  	96.8949
1747.24  	97.072
1750.12  	97.1184
1752.99  	97.2556
1755.86  	97.4402
1758.74  	97.5041
1761.61  	97.5823
1764.49  	97.6508
1767.36  	97.7202
1770.23  	97.8121
1773.11  	97.8288
1775.98  	97.9203
1778.85  	98.0087
1781.73  	98.09
1784.6  	98.1278
1787.48  	98.1841
1790.35  	98.257
1793.22  	98.3452
1796.1  	98.2527
1798.97  	98.3161
1801.84  	98.3391
1804.72  	98.3977
1807.59  	98.4172
1810.47  	98.4301
1813.34  	98.4462
1816.21  	98.5
1819.09  	98.4303
1821.96  	98.4796
1824.83  	98.5021
1827.71  	98.4736
1830.58  	98.4631
1833.46  	98.4805
1836.33  	98.5692
1839.2  	98.5658
1842.08  	98.6243
1844.95  	98.6139
1847.83  	98.5266
1850.7  	98.6232
1853.57  	98.618
1856.45  	98.6757
1859.32  	98.5557
1862.19  	98.5063
1865.07  	98.5505
1867.94  	98.5313
1870.82  	98.5365
1873.69  	98.6222
1876.56  	98.5236
1879.44  	98.7228
1882.31  	98.5688
1885.18  	98.5454
1888.06  	98.6499
1890.93  	98.7034
1893.81  	98.6492
1896.68  	98.7219
1899.55  	98.5486
1902.43  	98.6028
1905.3  	98.5883
1908.17  	98.5853
1911.05  	98.5658
1913.92  	98.5926
1916.8  	98.6428
1919.67  	98.6304
1922.54  	98.6068
1925.42  	98.5512
1928.29  	98.6409
1931.16  	98.5794
1934.04  	98.47
1936.91  	98.4024
1939.79  	98.4709
1942.66  	98.3726
1945.53  	98.5284
1948.41  	98.6349
1951.28  	98.6062
1954.15  	98.5911
1957.03  	98.568
1959.9  	98.6762
1962.78  	98.6677
1965.65  	98.6
1968.52  	98.5266
1971.4  	98.6618
1974.27  	98.7796
1977.14  	98.7626
1980.02  	98.7154
1982.89  	98.7624
1985.77  	98.6733
1988.64  	98.5174
1991.51  	98.6358
1994.39  	98.3477
1997.26  	98.2776
2000.13  	97.9624
2003.01  	98.2332
2005.88  	98.2191
2008.76  	98.6319
2011.63  	98.0983
2014.5  	98.1846
2017.38  	98.3532
2020.25  	98.6256
2023.12  	98.3227
2026  	98.5715
2028.87  	98.268
2031.75  	98.4138
2034.62  	98.2356
2037.49  	98.3591
2040.37  	98.2338
2043.24  	97.9226
2046.11  	98.1841
2048.99  	98.2018
2051.86  	98.4769
2054.74  	98.3472
2057.61  	98.3491
2060.48  	98.559
2063.36  	98.4441
2066.23  	98.2843
2069.1  	98.3151
2071.98  	98.4766
2074.85  	98.5679
2077.73  	98.2818
2080.6  	98.3683
2083.47  	98.2528
2086.35  	98.3891
2089.22  	98.3873
2092.09  	98.4298
2094.97  	98.3327
2097.84  	98.321
2100.72  	98.2747
2103.59  	98.377
2106.46  	98.2396
2109.34  	98.4193
2112.21  	98.4279
2115.08  	98.3547
2117.96  	98.4344
2120.83  	98.381
2123.71  	98.3462
2126.58  	98.3402
2129.45  	98.2019
2132.33  	98.0498
2135.2  	98.0277
2138.07  	98.197
2140.95  	97.8666
2143.82  	97.8991
2146.7  	98.1657
2149.57  	98.3421
2152.44  	98.3119
2155.32  	97.9259
2158.19  	98.0691
2161.06  	97.7961
2163.94  	97.5675
2166.81  	98.0499
2169.69  	98.4604
2172.56  	98.1101
2175.43  	98.3436
2178.31  	98.2287
2181.18  	97.9352
2184.05  	98.2505
2186.93  	98.4511
2189.8  	98.1757
2192.68  	98.4044
2195.55  	98.0134
2198.42  	98.3061
2201.3  	98.1884
2204.17  	97.7911
2207.04  	98.1431
2209.92  	98.1187
2212.79  	98.0599
2215.67  	97.9469
2218.54  	98.1136
2221.41  	97.919
2224.29  	98.0033
2227.16  	98.0117
2230.03  	98.1534
2232.91  	98.0321
2235.78  	97.9378
2238.66  	98.1793
2241.53  	98.0071
2244.4  	98.0012
2247.28  	98.2376
2250.15  	98.0735
2253.02  	98.0848
2255.9  	98.1829
2258.77  	98.3934
2261.65  	98.1281
2264.52  	98.225
2267.39  	98.2816
2270.27  	98.3047
2273.14  	98.3162
2276.01  	98.414
2278.89  	98.2961
2281.76  	98.3138
2284.64  	98.3517
2287.51  	98.4382
2290.38  	98.286
2293.26  	98.2415
2296.13  	98.2541
2299  	98.1121
2301.88  	98.1029
2304.75  	98.0929
2307.63  	98.0095
2310.5  	98.0187
2313.37  	97.9436
2316.25  	98.1149
2319.12  	98.1851
2321.99  	98.0667
2324.87  	98.0963
2327.74  	98.105
2330.62  	98.1417
2333.49  	98.0641
2336.36  	98.0974
2339.24  	98.1014
2342.11  	98.1134
2344.98  	97.9429
2347.86  	97.9416
2350.73  	98.0667
2353.61  	98.056
2356.48  	98.0097
2359.35  	97.9713
2362.23  	98.1013
2365.1  	98.2032
2367.97  	98.2181
2370.85  	98.3179
2373.72  	98.2418
2376.6  	98.2674
2379.47  	98.2478
2382.34  	98.1916
2385.22  	98.3428
2388.09  	98.3578
2390.96  	98.2995
2393.84  	98.2189
2396.71  	98.2483
2399.59  	98.2033
2402.46  	98.1347
2405.33  	98.0923
2408.21  	98.0442
2411.08  	98.1352
2413.95  	98.0972
2416.83  	98.0526
2419.7  	98.0549
2422.58  	98.1384
2425.45  	98.155
2428.32  	98.0831
2431.2  	98.1933
2434.07  	98.1848
2436.94  	98.1179
2439.82  	98.1275
2442.69  	98.0785
2445.57  	98.0601
2448.44  	98.1138
2451.31  	98.0151
2454.19  	98.0337
2457.06  	98.0733
2459.93  	98.0383
2462.81  	98.006
2465.68  	97.9771
2468.56  	98.0654
2471.43  	98.0524
2474.3  	98.012
2477.18  	97.9847
2480.05  	97.9888
2482.93  	97.9315
2485.8  	97.994
2488.67  	97.9357
2491.55  	97.9379
2494.42  	97.9196
2497.29  	97.8453
2500.17  	97.8812
2503.04  	97.9159
2505.92  	97.889
2508.79  	97.9759
2511.66  	97.9926
2514.54  	97.9132
2517.41  	97.8805
2520.28  	97.8926
2523.16  	97.8905
2526.03  	97.798
2528.91  	97.7057
2531.78  	97.8011
2534.65  	97.795
2537.53  	97.83
2540.4  	97.8289
2543.27  	97.8594
2546.15  	97.72
2549.02  	97.7493
2551.9  	97.7202
2554.77  	97.6577
2557.64  	97.6107
2560.52  	97.5883
2563.39  	97.5611
2566.26  	97.6254
2569.14  	97.6781
2572.01  	97.6246
2574.89  	97.5736
2577.76  	97.5548
2580.63  	97.5579
2583.51  	97.5759
2586.38  	97.4985
2589.25  	97.6445
2592.13  	97.6023
2595  	97.5706
2597.88  	97.5902
2600.75  	97.5569
2603.62  	97.6389
2606.5  	97.6109
2609.37  	97.5797
2612.24  	97.5162
2615.12  	97.5267
2617.99  	97.5962
2620.87  	97.5801
2623.74  	97.5855
2626.61  	97.6253
2629.49  	97.6129
2632.36  	97.5624
2635.23  	97.6154
2638.11  	97.5752
2640.98  	97.5564
2643.86  	97.6241
2646.73  	97.6225
2649.6  	97.627
2652.48  	97.6018
2655.35  	97.5673
2658.22  	97.5456
2661.1  	97.5305
2663.97  	97.5889
2666.85  	97.4921
2669.72  	97.5439
2672.59  	97.5051
2675.47  	97.5086
2678.34  	97.5133
2681.21  	97.4685
2684.09  	97.4352
2686.96  	97.4636
2689.84  	97.498
2692.71  	97.5067
2695.58  	97.4453
2698.46  	97.4866
2701.33  	97.4842
2704.2  	97.4541
2707.08  	97.4704
2709.95  	97.4468
2712.83  	97.4347
2715.7  	97.4503
2718.57  	97.4764
2721.45  	97.4236
2724.32  	97.4201
2727.19  	97.4327
2730.07  	97.4013
2732.94  	97.4077
2735.82  	97.4068
2738.69  	97.4232
2741.56  	97.3863
2744.44  	97.4295
2747.31  	97.3885
2750.18  	97.3568
2753.06  	97.3582
2755.93  	97.4066
2758.81  	97.3615
2761.68  	97.3762
2764.55  	97.3697
2767.43  	97.3215
2770.3  	97.3273
2773.17  	97.3396
2776.05  	97.3309
2778.92  	97.342
2781.8  	97.3411
2784.67  	97.3035
2787.54  	97.2981
2790.42  	97.2639
2793.29  	97.2931
2796.16  	97.2816
2799.04  	97.2527
2801.91  	97.2866
2804.79  	97.2288
2807.66  	97.2259
2810.53  	97.2135
2813.41  	97.2212
2816.28  	97.1995
2819.15  	97.191
2822.03  	97.2484
2824.9  	97.1327
2827.78  	97.1488
2830.65  	97.2056
2833.52  	97.1521
2836.4  	97.1486
2839.27  	97.1884
2842.14  	97.1856
2845.02  	97.1697
2847.89  	97.201
2850.77  	97.2271
2853.64  	97.2396
2856.51  	97.2653
2859.39  	97.1846
2862.26  	97.1074
2865.13  	97.0957
2868.01  	97.1085
2870.88  	97.1179
2873.76  	97.0432
2876.63  	97.0242
2879.5  	96.9814
2882.38  	97.0632
2885.25  	97.0452
2888.12  	97.0201
2891  	96.9739
2893.87  	97.026
2896.75  	96.9945
2899.62  	96.9515
2902.49  	97.0039
2905.37  	96.949
2908.24  	96.9625
2911.11  	96.9614
2913.99  	97.0563
2916.86  	97.0542
2919.74  	97.1409
2922.61  	97.0589
2925.48  	97.0988
2928.36  	97.0228
2931.23  	97.028
2934.1  	96.8944
2936.98  	96.88
2939.85  	96.8641
2942.73  	96.8438
2945.6  	96.7402
2948.47  	96.753
2951.35  	96.7785
2954.22  	96.7598
2957.09  	96.7865
2959.97  	96.7791
2962.84  	96.6999
2965.72  	96.6768
2968.59  	96.6575
2971.46  	96.7051
2974.34  	96.6443
2977.21  	96.638
2980.08  	96.6488
2982.96  	96.7071
2985.83  	96.6514
2988.71  	96.6963
2991.58  	96.5685
2994.45  	96.5882
2997.33  	96.5343
3000.2  	96.4873
3003.07  	96.4366
3005.95  	96.4563
3008.82  	96.5024
3011.7  	96.4681
3014.57  	96.512
3017.44  	96.4283
3020.32  	96.3984
3023.19  	96.3129
3026.06  	96.3216
3028.94  	96.2771
3031.81  	96.3366
3034.69  	96.2706
3037.56  	96.1919
3040.43  	96.1778
3043.31  	96.1418
3046.18  	96.0545
3049.05  	96.0457
3051.93  	96.1296
3054.8  	96.0863
3057.68  	96.1569
3060.55  	96.0515
3063.42  	96.0193
3066.3  	95.9998
3069.17  	95.9304
3072.04  	95.8425
3074.92  	95.8809
3077.79  	95.8737
3080.67  	95.8478
3083.54  	95.8236
3086.41  	95.7566
3089.29  	95.7357
3092.16  	95.7465
3095.04  	95.7508
3097.91  	95.6524
3100.78  	95.7131
3103.66  	95.6548
3106.53  	95.6607
3109.4  	95.6034
3112.28  	95.5413
3115.15  	95.5548
3118.03  	95.516
3120.9  	95.4877
3123.77  	95.5034
3126.65  	95.4826
3129.52  	95.467
3132.39  	95.4607
3135.27  	95.5496
3138.14  	95.5095
3141.02  	95.539
3143.89  	95.4439
3146.76  	95.4391
3149.64  	95.3382
3152.51  	95.3397
3155.38  	95.3963
3158.26  	95.314
3161.13  	95.315
3164.01  	95.2883
3166.88  	95.3084
3169.75  	95.2876
3172.63  	95.332
3175.5  	95.2918
3178.37  	95.0752
3181.25  	95.1433
3184.12  	95.0277
3187  	95.0955
3189.87  	95.1483
3192.74  	95.0302
3195.62  	95.0131
3198.49  	95.0306
3201.36  	94.9071
3204.24  	94.9271
3207.11  	95.0127
3209.99  	94.787
3212.86  	94.8678
3215.73  	94.9295
3218.61  	94.994
3221.48  	94.8855
3224.35  	94.81
3227.23  	95.004
3230.1  	94.8626
3232.98  	94.9518
3235.85  	94.8217
3238.72  	94.8786
3241.6  	94.8161
3244.47  	94.8732
3247.34  	94.9594
3250.22  	94.8942
3253.09  	94.8375
3255.97  	94.8144
3258.84  	94.6431
3261.71  	94.8075
3264.59  	94.8962
3267.46  	94.8445
3270.33  	94.7718
3273.21  	94.7863
3276.08  	94.8802
3278.96  	94.7996
3281.83  	94.7643
3284.7  	94.689
3287.58  	94.8535
3290.45  	94.8098
3293.32  	94.8116
3296.2  	94.7565
3299.07  	94.8255
3301.95  	94.7561
3304.82  	94.6939
3307.69  	94.6349
3310.57  	94.6602
3313.44  	94.7002
3316.31  	94.6598
3319.19  	94.7305
3322.06  	94.6529
3324.94  	94.6631
3327.81  	94.6815
3330.68  	94.667
3333.56  	94.6479
3336.43  	94.6923
3339.3  	94.7125
3342.18  	94.5842
3345.05  	94.5468
3347.93  	94.5129
3350.8  	94.6947
3353.67  	94.7119
3356.55  	94.4996
3359.42  	94.614
3362.29  	94.4798
3365.17  	94.389
3368.04  	94.5851
3370.92  	94.4862
3373.79  	94.5552
3376.66  	94.5295
3379.54  	94.6577
3382.41  	94.6083
3385.28  	94.563
3388.16  	94.5925
3391.03  	94.6589
3393.91  	94.5448
3396.78  	94.5638
3399.65  	94.7032
3402.53  	94.4952
3405.4  	94.5743
3408.27  	94.5668
3411.15  	94.7227
3414.02  	94.7449
3416.9  	94.7132
3419.77  	94.6064
3422.64  	94.6696
3425.52  	94.6525
3428.39  	94.7938
3431.26  	94.9106
3434.14  	94.8653
3437.01  	94.833
3439.89  	94.9711
3442.76  	94.9945
3445.63  	95.0174
3448.51  	94.8676
3451.38  	95.1139
3454.25  	95.1118
3457.13  	95.1205
3460  	95.236
3462.88  	95.0127
3465.75  	95.2306
3468.62  	95.2222
3471.5  	95.1614
3474.37  	95.1936
3477.24  	95.3318
3480.12  	95.4239
3482.99  	95.3422
3485.87  	95.4854
3488.74  	95.404
3491.61  	95.4427
3494.49  	95.4891
3497.36  	95.5088
3500.23  	95.6707
3503.11  	95.4128
3505.98  	95.4813
3508.86  	95.4892
3511.73  	95.6119
3514.6  	95.7222
3517.48  	95.7124
3520.35  	95.7934
3523.22  	95.538
3526.1  	95.5828
3528.97  	95.6537
3531.85  	95.8516
3534.72  	95.9526
3537.59  	95.8871
3540.47  	96.0629
3543.34  	96.0245
3546.21  	95.6028
3549.09  	96.0099
3551.96  	96.0711
3554.84  	96.0322
3557.71  	95.9801
3560.58  	96.1958
3563.46  	96.2324
3566.33  	96.0305
3569.2  	96.0632
3572.08  	96.2642
3574.95  	96.3476
3577.83  	96.3221
3580.7  	96.5083
3583.57  	96.4031
3586.45  	96.2421
3589.32  	96.313
3592.19  	96.6875
3595.07  	96.5647
3597.94  	96.6575
3600.82  	96.4712
3603.69  	96.6249
3606.56  	96.5507
3609.44  	96.7182
3612.31  	96.8787
3615.18  	96.4932
3618.06  	96.7128
3620.93  	96.491
3623.81  	96.8168
3626.68  	96.839
3629.55  	97.025
3632.43  	96.8881
3635.3  	97.1033
3638.17  	97.1121
3641.05  	97.2534
3643.92  	97.1534
3646.8  	97.1243
3649.67  	97.0981
3652.54  	97.2921
3655.42  	97.6136
3658.29  	97.4355
3661.16  	97.6853
3664.04  	97.7085
3666.91  	97.6849
3669.79  	97.7695
3672.66  	98.0407
3675.53  	98.3364
3678.41  	97.7723
3681.28  	97.9072
3684.15  	98.0768
3687.03  	98.1851
3689.9  	98.1501
3692.78  	97.9075
3695.65  	98.0278
3698.52  	98.1726
3701.4  	98.2707
3704.27  	97.9966
3707.15  	98.2457
3710.02  	98.1323
3712.89  	97.987
3715.77  	97.7678
3718.64  	98.0044
3721.51  	97.9915
3724.39  	97.8614
3727.26  	97.6746
3730.14  	97.9308
3733.01  	98.3636
3735.88  	97.8065
3738.76  	97.7413
3741.63  	97.9025
3744.5  	98.4429
3747.38  	97.9033
3750.25  	98.4025
3753.13  	97.9259
3756  	98.3348
3758.87  	98.3225
3761.75  	98.3187
3764.62  	98.5009
3767.49  	98.2898
3770.37  	98.4271
3773.24  	98.0322
3776.12  	98.1862
3778.99  	98.1602
3781.86  	98.0857
3784.74  	98.1148
3787.61  	97.9693
3790.48  	97.9548
3793.36  	98.0878
3796.23  	98.0415
3799.11  	98.0694
3801.98  	98.0985
3804.85  	98.1953
3807.73  	98.1023
3810.6  	98.0119
3813.47  	98.0712
3816.35  	98.6023
3819.22  	98.0259
3822.1  	98.1345
3824.97  	97.992
3827.84  	98.1362
3830.72  	98.1159
3833.59  	98.1265
3836.46  	98.1962
3839.34  	97.8651
3842.21  	97.7542
3845.09  	97.9017
3847.96  	98.0569
3850.83  	98.1481
3853.71  	98.5703
3856.58  	97.7721
3859.45  	98.0629
3862.33  	97.9977
3865.2  	98.421
3868.08  	98.0439
3870.95  	97.9336
3873.82  	97.9169
3876.7  	98.0232
3879.57  	98.1271
3882.44  	98.0224
3885.32  	98.1251
3888.19  	97.8877
3891.07  	97.9931
3893.94  	97.7985
3896.81  	98.0117
3899.69  	98.0369
3902.56  	97.9434
3905.43  	97.8796
3908.31  	97.895
3911.18  	98.054
3914.06  	98.1392
3916.93  	98.0097
3919.8  	97.9923
3922.68  	97.9452
3925.55  	97.9808
3928.42  	98.0306
3931.3  	97.967
3934.17  	97.8838
3937.05  	97.9123
3939.92  	97.9319
3942.79  	97.9659
3945.67  	97.9725
3948.54  	97.9514
3951.41  	97.8424
3954.29  	97.9721
3957.16  	97.9952
3960.04  	97.934
3962.91  	97.9968
3965.78  	98.0174
3968.66  	98.0145
3971.53  	97.9177
3974.4  	97.9938
3977.28  	97.9903
3980.15  	97.9808
3983.03  	97.8941
3985.9  	98.0236
3988.77  	97.9796
3991.65  	97.9402
3994.52  	97.9394
3997.39  	98.0212
4000.27  	97.9626