File: FTIR/ILUM_29-10-2024/MoS2_NS_Sodio_1.txt
##TITLE=No Description
##DATA TYPE=INFRARED SPECTRUM
##XUNITS=1/CM
##YUNITS=%T
399.452  	30.8336
402.326  	31.0343
405.2  	31.554
408.073  	31.6788
410.947  	31.2712
413.821  	31.719
416.695  	31.6944
419.568  	31.1307
422.442  	31.7173
425.316  	31.8553
428.19  	31.6641
431.063  	32.0004
433.937  	31.9134
436.811  	32.2141
439.685  	32.8198
442.558  	32.9687
445.432  	32.135
448.306  	33.1605
451.18  	32.4404
454.053  	32.3713
456.927  	33.4318
459.801  	33.4069
462.675  	33.0378
465.548  	33.0129
468.422  	33.0725
471.296  	33.8851
474.17  	33.5603
477.043  	33.4411
479.917  	33.7513
482.791  	33.826
485.665  	34.0307
488.538  	33.9819
491.412  	34.2028
494.286  	34.1061
497.16  	34.2904
500.034  	34.1042
502.907  	34.0546
505.781  	34.1515
508.655  	34.2515
511.529  	34.1543
514.402  	34.1393
517.276  	34.1996
520.15  	34.3016
523.024  	33.8916
525.897  	34.0626
528.771  	34.1813
531.645  	34.1803
534.519  	34.2317
537.392  	34.3243
540.266  	34.2916
543.14  	34.262
546.014  	34.2706
548.887  	34.4252
551.761  	34.1721
554.635  	34.3948
557.509  	34.3296
560.382  	34.3877
563.256  	34.5212
566.13  	34.4959
569.004  	34.6157
571.877  	34.8688
574.751  	34.8359
577.625  	34.9718
580.499  	35.0044
583.372  	34.9706
586.246  	34.9324
589.12  	35.0865
591.994  	35.2854
594.867  	35.433
597.741  	35.5729
600.615  	35.5669
603.489  	35.5622
606.362  	35.5721
609.236  	35.5485
612.11  	35.5352
614.984  	35.503
617.858  	35.5805
620.731  	35.7197
623.605  	35.8554
626.479  	35.8967
629.353  	36.1376
632.226  	36.2471
635.1  	36.4444
637.974  	36.6291
640.848  	36.8347
643.721  	37.0353
646.595  	37.1713
649.469  	37.2654
652.343  	37.4628
655.216  	37.5419
658.09  	37.6051
660.964  	37.6497
663.838  	37.7478
666.711  	37.7717
669.585  	37.9174
672.459  	37.9222
675.333  	38.07
678.206  	38.0746
681.08  	38.149
683.954  	38.2588
686.828  	38.301
689.701  	38.3068
692.575  	38.3854
695.449  	38.3869
698.323  	38.4823
701.196  	38.566
704.07  	38.5648
706.944  	38.6446
709.818  	38.7673
712.691  	38.8284
715.565  	38.8904
718.439  	39.024
721.313  	39.1838
724.186  	39.2988
727.06  	39.4123
729.934  	39.5013
732.808  	39.6976
735.681  	39.8097
738.555  	39.9372
741.429  	40.0948
744.303  	40.1832
747.177  	40.2799
750.05  	40.3367
752.924  	40.4069
755.798  	40.4754
758.672  	40.469
761.545  	40.5478
764.419  	40.6665
767.293  	40.7752
770.167  	40.9263
773.04  	41.0949
775.914  	41.1391
778.788  	41.365
781.662  	41.4497
784.535  	41.5846
787.409  	41.6893
790.283  	41.6462
793.157  	41.6889
796.03  	41.8048
798.904  	41.8135
801.778  	41.9163
804.652  	42.0229
807.525  	42.0974
810.399  	42.1387
813.273  	42.2821
816.147  	42.5907
819.02  	42.9537
821.894  	43.1365
824.768  	43.2837
827.642  	43.353
830.515  	43.3814
833.389  	43.3687
836.263  	43.3744
839.137  	43.3981
842.01  	43.2962
844.884  	43.1781
847.758  	43.1662
850.632  	43.0495
853.505  	42.9021
856.379  	42.7966
859.253  	42.6892
862.127  	42.6115
865.001  	42.5234
867.874  	42.4069
870.748  	42.3358
873.622  	42.3133
876.496  	42.3036
879.369  	42.4238
882.243  	42.4097
885.117  	42.3209
887.991  	42.1852
890.864  	42.0104
893.738  	41.8157
896.612  	41.6641
899.486  	41.5611
902.359  	41.4417
905.233  	41.3764
908.107  	41.3191
910.981  	41.2901
913.854  	41.3487
916.728  	41.3887
919.602  	41.4116
922.476  	41.4353
925.349  	41.519
928.223  	41.5028
931.097  	41.42
933.971  	41.4147
936.844  	41.4658
939.718  	41.5939
942.592  	41.9156
945.466  	42.3772
948.339  	43.0755
951.213  	43.8731
954.087  	44.6758
956.961  	45.3829
959.834  	46.1089
962.708  	46.7896
965.582  	47.4706
968.456  	48.0197
971.329  	48.4344
974.203  	48.6439
977.077  	48.7892
979.951  	48.7838
982.824  	48.7708
985.698  	48.6727
988.572  	48.5114
991.446  	48.316
994.32  	48.1102
997.193  	47.8868
1000.07  	47.6556
1002.94  	47.3705
1005.81  	47.0974
1008.69  	46.7133
1011.56  	46.2134
1014.44  	45.7497
1017.31  	45.1191
1020.18  	44.8235
1023.06  	44.9485
1025.93  	45.4297
1028.8  	45.8063
1031.68  	45.8926
1034.55  	45.6945
1037.43  	45.3684
1040.3  	45.0651
1043.17  	44.8842
1046.05  	45.1642
1048.92  	45.4705
1051.79  	45.5698
1054.67  	45.5569
1057.54  	45.4275
1060.42  	45.2587
1063.29  	45.085
1066.16  	44.9022
1069.04  	44.6346
1071.91  	44.4008
1074.78  	44.1651
1077.66  	43.9665
1080.53  	43.8706
1083.41  	43.719
1086.28  	43.6119
1089.15  	43.5099
1092.03  	43.4172
1094.9  	43.3344
1097.77  	43.2777
1100.65  	43.2416
1103.52  	43.2839
1106.4  	43.3005
1109.27  	43.3604
1112.14  	43.3697
1115.02  	43.4958
1117.89  	43.5987
1120.76  	43.6616
1123.64  	43.8085
1126.51  	44.0272
1129.39  	44.2448
1132.26  	44.3929
1135.13  	44.4272
1138.01  	44.4843
1140.88  	44.4853
1143.75  	44.4837
1146.63  	44.4477
1149.5  	44.3596
1152.38  	44.2569
1155.25  	44.1961
1158.12  	44.1498
1161  	44.1037
1163.87  	44.1382
1166.74  	44.1489
1169.62  	44.1363
1172.49  	44.0743
1175.37  	43.9591
1178.24  	43.8043
1181.11  	43.6572
1183.99  	43.5537
1186.86  	43.4278
1189.73  	43.2924
1192.61  	43.1803
1195.48  	43.095
1198.36  	43.0177
1201.23  	42.9472
1204.1  	42.8743
1206.98  	42.881
1209.85  	42.8901
1212.72  	42.8691
1215.6  	42.8678
1218.47  	42.8677
1221.35  	42.8808
1224.22  	42.8616
1227.09  	42.8456
1229.97  	42.8064
1232.84  	42.7832
1235.72  	42.7467
1238.59  	42.7431
1241.46  	42.7361
1244.34  	42.7847
1247.21  	42.82
1250.08  	42.8671
1252.96  	42.9137
1255.83  	42.9574
1258.71  	42.9769
1261.58  	43.0277
1264.45  	43.0299
1267.33  	43.037
1270.2  	43.0173
1273.07  	42.9688
1275.95  	42.9377
1278.82  	42.902
1281.7  	42.8322
1284.57  	42.7617
1287.44  	42.6562
1290.32  	42.5954
1293.19  	42.5567
1296.06  	42.5809
1298.94  	42.5988
1301.81  	42.5869
1304.69  	42.5756
1307.56  	42.5652
1310.43  	42.5515
1313.31  	42.5502
1316.18  	42.5432
1319.05  	42.5419
1321.93  	42.5192
1324.8  	42.4976
1327.68  	42.493
1330.55  	42.4483
1333.42  	42.4181
1336.3  	42.3922
1339.17  	42.331
1342.04  	42.3444
1344.92  	42.278
1347.79  	42.2241
1350.67  	42.1809
1353.54  	42.0925
1356.41  	42.0589
1359.29  	41.9718
1362.16  	41.8683
1365.03  	41.8491
1367.91  	41.7456
1370.78  	41.6797
1373.66  	41.6442
1376.53  	41.7496
1379.4  	41.8472
1382.28  	41.9795
1385.15  	42.0706
1388.02  	42.219
1390.9  	42.2861
1393.77  	42.1764
1396.65  	42.1292
1399.52  	42.0349
1402.39  	41.9144
1405.27  	41.7851
1408.14  	41.6724
1411.01  	41.5661
1413.89  	41.4814
1416.76  	41.3632
1419.64  	41.4966
1422.51  	41.51
1425.38  	41.6869
1428.26  	41.7109
1431.13  	41.8686
1434  	41.9067
1436.88  	41.9996
1439.75  	42.0801
1442.63  	42.1387
1445.5  	42.22
1448.37  	42.4196
1451.25  	42.5878
1454.12  	42.7148
1456.99  	42.9087
1459.87  	43.2888
1462.74  	43.3504
1465.62  	43.6117
1468.49  	43.7265
1471.36  	43.7364
1474.24  	43.8823
1477.11  	43.9256
1479.98  	43.951
1482.86  	44.002
1485.73  	43.9433
1488.61  	43.8173
1491.48  	43.8271
1494.35  	43.6652
1497.23  	43.568
1500.1  	43.5058
1502.97  	43.3723
1505.85  	43.1308
1508.72  	43.1302
1511.6  	42.9335
1514.47  	42.7966
1517.34  	42.68
1520.22  	42.4628
1523.09  	42.4403
1525.96  	42.2063
1528.84  	42.0522
1531.71  	41.8343
1534.59  	41.7554
1537.46  	41.4518
1540.33  	41.2855
1543.21  	41.0845
1546.08  	40.9083
1548.95  	40.6477
1551.83  	40.4327
1554.7  	40.187
1557.58  	39.8242
1560.45  	39.7833
1563.32  	39.3922
1566.2  	39.1898
1569.07  	38.9573
1571.94  	38.8761
1574.82  	38.5849
1577.69  	38.5949
1580.57  	38.3691
1583.44  	38.2099
1586.31  	38.0146
1589.19  	37.8466
1592.06  	37.6625
1594.93  	37.4862
1597.81  	37.3149
1600.68  	37.2565
1603.56  	37.2211
1606.43  	37.2142
1609.3  	37.3462
1612.18  	37.5078
1615.05  	37.5386
1617.92  	38.0233
1620.8  	38.1608
1623.67  	38.4991
1626.55  	38.8193
1629.42  	39.2026
1632.29  	39.5254
1635.17  	39.7618
1638.04  	40.4198
1640.91  	40.6913
1643.79  	41.0717
1646.66  	41.5523
1649.54  	42.1341
1652.41  	42.1112
1655.28  	43.1807
1658.16  	43.3754
1661.03  	43.7122
1663.9  	44.1831
1666.78  	44.4988
1669.65  	44.8712
1672.53  	45.2679
1675.4  	45.633
1678.27  	45.9915
1681.15  	46.2427
1684.02  	46.3831
1686.89  	46.8194
1689.77  	46.9731
1692.64  	47.1822
1695.52  	47.2808
1698.39  	47.3574
1701.26  	47.5005
1704.14  	47.516
1707.01  	47.5952
1709.88  	47.7055
1712.76  	47.7778
1715.63  	47.8158
1718.51  	47.9455
1721.38  	47.99
1724.25  	48.0543
1727.13  	48.0871
1730  	48.0738
1732.87  	48.0266
1735.75  	48.1239
1738.62  	47.9657
1741.5  	47.9692
1744.37  	47.9418
1747.24  	47.9124
1750.12  	47.8674
1752.99  	47.8427
1755.86  	47.763
1758.74  	47.7448
1761.61  	47.6498
1764.49  	47.6987
1767.36  	47.622
1770.23  	47.5224
1773.11  	47.4529
1775.98  	47.419
1778.85  	47.3545
1781.73  	47.3069
1784.6  	47.2388
1787.48  	47.196
1790.35  	47.1108
1793.22  	47.0905
1796.1  	46.9612
1798.97  	46.924
1801.84  	46.9189
1804.72  	46.8751
1807.59  	46.8003
1810.47  	46.7684
1813.34  	46.7877
1816.21  	46.7025
1819.09  	46.6673
1821.96  	46.6277
1824.83  	46.584
1827.71  	46.5595
1830.58  	46.5377
1833.46  	46.4896
1836.33  	46.4536
1839.2  	46.382
1842.08  	46.3229
1844.95  	46.3876
1847.83  	46.3247
1850.7  	46.2816
1853.57  	46.2267
1856.45  	46.2399
1859.32  	46.1412
1862.19  	46.2137
1865.07  	46.1122
1867.94  	46.0017
1870.82  	46.1064
1873.69  	46.0076
1876.56  	46.0091
1879.44  	45.9701
1882.31  	45.9838
1885.18  	45.9459
1888.06  	45.9503
1890.93  	45.8826
1893.81  	45.8591
1896.68  	45.9126
1899.55  	45.9084
1902.43  	45.8718
1905.3  	45.8203
1908.17  	45.7176
1911.05  	45.7057
1913.92  	45.686
1916.8  	45.6933
1919.67  	45.7749
1922.54  	45.7537
1925.42  	45.6715
1928.29  	45.6201
1931.16  	45.7407
1934.04  	45.7274
1936.91  	45.7216
1939.79  	45.8742
1942.66  	45.7574
1945.53  	45.9567
1948.41  	45.8828
1951.28  	45.8709
1954.15  	45.8575
1957.03  	46.1731
1959.9  	46.5679
1962.78  	46.3588
1965.65  	46.5775
1968.52  	47.0067
1971.4  	46.4558
1974.27  	46.5631
1977.14  	46.7335
1980.02  	46.7307
1982.89  	46.4335
1985.77  	45.9775
1988.64  	46.0836
1991.51  	46.1446
1994.39  	46.1216
1997.26  	46.0138
2000.13  	46.0259
2003.01  	46.1787
2005.88  	46.0068
2008.76  	46.3755
2011.63  	46.4888
2014.5  	46.1825
2017.38  	46.6752
2020.25  	46.3046
2023.12  	46.3616
2026  	46.0763
2028.87  	46.4455
2031.75  	46.1016
2034.62  	46.1041
2037.49  	46.2037
2040.37  	46.0707
2043.24  	46.062
2046.11  	45.7575
2048.99  	45.4912
2051.86  	45.1266
2054.74  	45.2479
2057.61  	45.2318
2060.48  	44.9413
2063.36  	44.8883
2066.23  	45.0158
2069.1  	44.8626
2071.98  	44.8788
2074.85  	44.7766
2077.73  	44.8215
2080.6  	44.6675
2083.47  	44.5887
2086.35  	44.552
2089.22  	44.6244
2092.09  	44.6584
2094.97  	44.6857
2097.84  	44.5022
2100.72  	44.4493
2103.59  	44.4856
2106.46  	44.4122
2109.34  	44.4823
2112.21  	44.395
2115.08  	44.3929
2117.96  	44.2763
2120.83  	44.2566
2123.71  	44.4766
2126.58  	44.3505
2129.45  	44.3573
2132.33  	44.3945
2135.2  	44.8266
2138.07  	44.8894
2140.95  	44.7583
2143.82  	44.9564
2146.7  	45.102
2149.57  	45.1886
2152.44  	45.3823
2155.32  	46.0648
2158.19  	46.2128
2161.06  	46.4095
2163.94  	45.6863
2166.81  	45.2968
2169.69  	45.4954
2172.56  	45.4215
2175.43  	45.163
2178.31  	45.0568
2181.18  	44.9089
2184.05  	45.1295
2186.93  	45.0801
2189.8  	44.8159
2192.68  	44.8205
2195.55  	44.5761
2198.42  	44.484
2201.3  	44.3862
2204.17  	44.2717
2207.04  	44.1983
2209.92  	44.3137
2212.79  	44.4436
2215.67  	44.2916
2218.54  	44.303
2221.41  	44.1167
2224.29  	43.9333
2227.16  	43.8483
2230.03  	43.8149
2232.91  	43.8735
2235.78  	43.849
2238.66  	43.9428
2241.53  	43.7238
2244.4  	43.6297
2247.28  	43.669
2250.15  	43.5016
2253.02  	43.6553
2255.9  	43.5284
2258.77  	43.6062
2261.65  	43.3945
2264.52  	43.3132
2267.39  	43.3848
2270.27  	43.3502
2273.14  	43.3051
2276.01  	43.2541
2278.89  	43.1457
2281.76  	43.0902
2284.64  	42.9979
2287.51  	42.905
2290.38  	42.8059
2293.26  	42.8635
2296.13  	42.8298
2299  	42.7685
2301.88  	42.6895
2304.75  	42.7759
2307.63  	42.6516
2310.5  	42.647
2313.37  	42.576
2316.25  	42.5473
2319.12  	42.4723
2321.99  	42.4256
2324.87  	42.3802
2327.74  	42.4181
2330.62  	42.3748
2333.49  	42.4424
2336.36  	42.3499
2339.24  	42.4192
2342.11  	42.3681
2344.98  	42.3529
2347.86  	42.3393
2350.73  	42.227
2353.61  	42.2786
2356.48  	42.2045
2359.35  	42.2566
2362.23  	42.2755
2365.1  	42.2497
2367.97  	42.2724
2370.85  	42.292
2373.72  	42.3325
2376.6  	42.2899
2379.47  	42.268
2382.34  	42.2632
2385.22  	42.2868
2388.09  	42.1778
2390.96  	42.2053
2393.84  	42.2311
2396.71  	42.1793
2399.59  	42.2055
2402.46  	42.2038
2405.33  	42.2098
2408.21  	42.1976
2411.08  	42.1257
2413.95  	42.1307
2416.83  	42.1288
2419.7  	42.0554
2422.58  	42.0568
2425.45  	42.0247
2428.32  	42.0463
2431.2  	42.0459
2434.07  	42.032
2436.94  	42.0284
2439.82  	41.9572
2442.69  	41.9473
2445.57  	41.9324
2448.44  	41.9535
2451.31  	41.9857
2454.19  	41.9512
2457.06  	41.8411
2459.93  	41.8061
2462.81  	41.8783
2465.68  	41.8036
2468.56  	41.8124
2471.43  	41.7838
2474.3  	41.7405
2477.18  	41.7776
2480.05  	41.7791
2482.93  	41.724
2485.8  	41.7242
2488.67  	41.6648
2491.55  	41.6942
2494.42  	41.751
2497.29  	41.6359
2500.17  	41.6155
2503.04  	41.6001
2505.92  	41.5393
2508.79  	41.5891
2511.66  	41.5701
2514.54  	41.5634
2517.41  	41.5658
2520.28  	41.4577
2523.16  	41.5253
2526.03  	41.4862
2528.91  	41.5004
2531.78  	41.4848
2534.65  	41.4562
2537.53  	41.3535
2540.4  	41.3295
2543.27  	41.4178
2546.15  	41.3778
2549.02  	41.3336
2551.9  	41.3472
2554.77  	41.3323
2557.64  	41.311
2560.52  	41.2056
2563.39  	41.2199
2566.26  	41.2467
2569.14  	41.1552
2572.01  	41.2166
2574.89  	41.1417
2577.76  	41.0976
2580.63  	41.1149
2583.51  	41.1468
2586.38  	41.1484
2589.25  	40.9644
2592.13  	40.9366
2595  	40.9691
2597.88  	40.9472
2600.75  	40.9573
2603.62  	40.9006
2606.5  	40.8837
2609.37  	40.8971
2612.24  	40.8657
2615.12  	40.8406
2617.99  	40.8048
2620.87  	40.8665
2623.74  	40.7935
2626.61  	40.7318
2629.49  	40.7385
2632.36  	40.7339
2635.23  	40.6867
2638.11  	40.6593
2640.98  	40.6342
2643.86  	40.6423
2646.73  	40.5957
2649.6  	40.5754
2652.48  	40.5524
2655.35  	40.5498
2658.22  	40.5202
2661.1  	40.5088
2663.97  	40.4868
2666.85  	40.4736
2669.72  	40.4614
2672.59  	40.4259
2675.47  	40.3687
2678.34  	40.3991
2681.21  	40.3639
2684.09  	40.3526
2686.96  	40.3399
2689.84  	40.2965
2692.71  	40.308
2695.58  	40.2672
2698.46  	40.2636
2701.33  	40.2167
2704.2  	40.2026
2707.08  	40.1858
2709.95  	40.1764
2712.83  	40.1461
2715.7  	40.1057
2718.57  	40.0941
2721.45  	40.1272
2724.32  	40.103
2727.19  	40.0579
2730.07  	40.0197
2732.94  	39.9903
2735.82  	40.0091
2738.69  	39.9855
2741.56  	39.958
2744.44  	39.9408
2747.31  	39.9269
2750.18  	39.902
2753.06  	39.8931
2755.93  	39.8642
2758.81  	39.8456
2761.68  	39.8214
2764.55  	39.8075
2767.43  	39.7866
2770.3  	39.7166
2773.17  	39.7085
2776.05  	39.6973
2778.92  	39.7036
2781.8  	39.6701
2784.67  	39.6358
2787.54  	39.6056
2790.42  	39.5908
2793.29  	39.6121
2796.16  	39.586
2799.04  	39.5507
2801.91  	39.5089
2804.79  	39.4807
2807.66  	39.4891
2810.53  	39.4542
2813.41  	39.4635
2816.28  	39.3976
2819.15  	39.3872
2822.03  	39.3952
2824.9  	39.4046
2827.78  	39.3437
2830.65  	39.336
2833.52  	39.2778
2836.4  	39.3238
2839.27  	39.2765
2842.14  	39.2352
2845.02  	39.2454
2847.89  	39.2716
2850.77  	39.2449
2853.64  	39.226
2856.51  	39.2563
2859.39  	39.2222
2862.26  	39.1911
2865.13  	39.1377
2868.01  	39.1624
2870.88  	39.1296
2873.76  	39.088
2876.63  	39.0886
2879.5  	39.0731
2882.38  	39.0574
2885.25  	39.0158
2888.12  	39.0114
2891  	39.0295
2893.87  	38.9892
2896.75  	38.9495
2899.62  	38.9578
2902.49  	38.9886
2905.37  	38.9817
2908.24  	38.9698
2911.11  	38.8889
2913.99  	38.8691
2916.86  	38.9073
2919.74  	38.8669
2922.61  	38.9
2925.48  	38.9305
2928.36  	38.9251
2931.23  	38.9249
2934.1  	38.9421
2936.98  	38.9217
2939.85  	38.9613
2942.73  	38.8893
2945.6  	38.8796
2948.47  	38.8697
2951.35  	38.8329
2954.22  	38.7381
2957.09  	38.6555
2959.97  	38.6853
2962.84  	38.673
2965.72  	38.6702
2968.59  	38.7146
2971.46  	38.7053
2974.34  	38.8105
2977.21  	38.8026
2980.08  	38.8851
2982.96  	38.9506
2985.83  	39.0049
2988.71  	39.0305
2991.58  	38.9308
2994.45  	38.975
2997.33  	38.9341
3000.2  	38.8817
3003.07  	38.9207
3005.95  	38.8875
3008.82  	38.8466
3011.7  	38.8253
3014.57  	38.8541
3017.44  	38.8061
3020.32  	38.8158
3023.19  	38.7797
3026.06  	38.7275
3028.94  	38.7445
3031.81  	38.7773
3034.69  	38.7794
3037.56  	38.7333
3040.43  	38.7498
3043.31  	38.6843
3046.18  	38.67
3049.05  	38.7245
3051.93  	38.7102
3054.8  	38.7006
3057.68  	38.6686
3060.55  	38.6571
3063.42  	38.6868
3066.3  	38.6239
3069.17  	38.6694
3072.04  	38.6107
3074.92  	38.5612
3077.79  	38.5745
3080.67  	38.6006
3083.54  	38.6498
3086.41  	38.59
3089.29  	38.4955
3092.16  	38.4876
3095.04  	38.5277
3097.91  	38.5393
3100.78  	38.5297
3103.66  	38.5201
3106.53  	38.4813
3109.4  	38.517
3112.28  	38.461
3115.15  	38.4769
3118.03  	38.384
3120.9  	38.4304
3123.77  	38.4213
3126.65  	38.4732
3129.52  	38.4368
3132.39  	38.4295
3135.27  	38.4034
3138.14  	38.3607
3141.02  	38.3533
3143.89  	38.2845
3146.76  	38.3394
3149.64  	38.2536
3152.51  	38.2624
3155.38  	38.2284
3158.26  	38.2817
3161.13  	38.2439
3164.01  	38.1749
3166.88  	38.1758
3169.75  	38.1645
3172.63  	38.1426
3175.5  	38.1013
3178.37  	38.0918
3181.25  	38.1478
3184.12  	38.1799
3187  	38.1322
3189.87  	38.1766
3192.74  	38.1724
3195.62  	38.1814
3198.49  	38.199
3201.36  	38.2454
3204.24  	38.2677
3207.11  	38.3085
3209.99  	38.3129
3212.86  	38.3037
3215.73  	38.4212
3218.61  	38.3745
3221.48  	38.4928
3224.35  	38.3998
3227.23  	38.5004
3230.1  	38.6185
3232.98  	38.579
3235.85  	38.5757
3238.72  	38.6438
3241.6  	38.6484
3244.47  	38.7497
3247.34  	38.7841
3250.22  	38.8543
3253.09  	38.8207
3255.97  	38.7568
3258.84  	38.8278
3261.71  	38.9165
3264.59  	38.811
3267.46  	38.8675
3270.33  	38.8713
3273.21  	38.9297
3276.08  	38.9073
3278.96  	38.9155
3281.83  	38.8589
3284.7  	38.9381
3287.58  	38.9352
3290.45  	38.9003
3293.32  	38.9625
3296.2  	38.9561
3299.07  	38.8627
3301.95  	38.8251
3304.82  	38.9115
3307.69  	38.8781
3310.57  	38.8315
3313.44  	38.8723
3316.31  	38.8411
3319.19  	38.8351
3322.06  	38.8718
3324.94  	38.7241
3327.81  	38.7445
3330.68  	38.7912
3333.56  	38.771
3336.43  	38.7468
3339.3  	38.7983
3342.18  	38.748
3345.05  	38.7769
3347.93  	38.6819
3350.8  	38.7647
3353.67  	38.8724
3356.55  	38.8242
3359.42  	38.7238
3362.29  	38.7555
3365.17  	38.8499
3368.04  	38.762
3370.92  	38.8389
3373.79  	38.8302
3376.66  	38.89
3379.54  	38.8459
3382.41  	38.8882
3385.28  	38.9757
3388.16  	39.0773
3391.03  	38.9616
3393.91  	38.8457
3396.78  	38.983
3399.65  	38.9701
3402.53  	38.9455
3405.4  	39.1326
3408.27  	39.0841
3411.15  	39.1268
3414.02  	39.1848
3416.9  	39.1128
3419.77  	39.1614
3422.64  	39.2566
3425.52  	39.2933
3428.39  	39.3335
3431.26  	39.3751
3434.14  	39.4534
3437.01  	39.5475
3439.89  	39.4143
3442.76  	39.4776
3445.63  	39.5786
3448.51  	39.6726
3451.38  	39.6264
3454.25  	39.7327
3457.13  	39.7156
3460  	39.6602
3462.88  	39.8083
3465.75  	39.9519
3468.62  	39.938
3471.5  	40.0069
3474.37  	39.9474
3477.24  	40.1079
3480.12  	40.073
3482.99  	40.1519
3485.87  	40.2461
3488.74  	40.2291
3491.61  	40.2922
3494.49  	40.2093
3497.36  	40.3863
3500.23  	40.3189
3503.11  	40.3521
3505.98  	40.5162
3508.86  	40.5748
3511.73  	40.6856
3514.6  	40.6814
3517.48  	40.6205
3520.35  	40.7422
3523.22  	40.7188
3526.1  	40.7089
3528.97  	40.8885
3531.85  	40.9317
3534.72  	40.8185
3537.59  	40.9745
3540.47  	41.1395
3543.34  	40.946
3546.21  	41.0531
3549.09  	41.1301
3551.96  	41.1505
3554.84  	41.2957
3557.71  	41.2497
3560.58  	41.3484
3563.46  	41.4548
3566.33  	41.4046
3569.2  	41.558
3572.08  	41.4437
3574.95  	41.5154
3577.83  	41.6415
3580.7  	41.7876
3583.57  	41.7911
3586.45  	41.9153
3589.32  	42.0126
3592.19  	42.0894
3595.07  	42.049
3597.94  	42.2337
3600.82  	42.2659
3603.69  	42.4198
3606.56  	42.4459
3609.44  	42.6485
3612.31  	42.6085
3615.18  	42.6546
3618.06  	42.6669
3620.93  	42.839
3623.81  	42.8971
3626.68  	42.8929
3629.55  	42.8677
3632.43  	43.0268
3635.3  	43.0972
3638.17  	43.0567
3641.05  	43.1053
3643.92  	43.1351
3646.8  	43.1325
3649.67  	43.1764
3652.54  	43.1535
3655.42  	43.0534
3658.29  	43.0956
3661.16  	43.0827
3664.04  	43.0672
3666.91  	43.056
3669.79  	43.0965
3672.66  	42.9297
3675.53  	42.8407
3678.41  	42.8192
3681.28  	42.8614
3684.15  	42.7445
3687.03  	42.7441
3689.9  	42.7949
3692.78  	42.7048
3695.65  	42.5953
3698.52  	42.6373
3701.4  	42.5298
3704.27  	42.4908
3707.15  	42.5461
3710.02  	42.5076
3712.89  	42.4302
3715.77  	42.4478
3718.64  	42.3014
3721.51  	42.4443
3724.39  	42.3031
3727.26  	42.2899
3730.14  	42.26
3733.01  	42.1756
3735.88  	41.9988
3738.76  	42.1249
3741.63  	42.0673
3744.5  	42.3133
3747.38  	42.2032
3750.25  	42.145
3753.13  	42.1971
3756  	42.0697
3758.87  	42.0209
3761.75  	42.1152
3764.62  	42.1313
3767.49  	41.9731
3770.37  	41.9239
3773.24  	41.998
3776.12  	41.9386
3778.99  	41.9287
3781.86  	41.9673
3784.74  	41.9184
3787.61  	41.7722
3790.48  	41.8078
3793.36  	41.7882
3796.23  	41.8249
3799.11  	41.7796
3801.98  	41.7806
3804.85  	41.682
3807.73  	41.7103
3810.6  	41.7238
3813.47  	41.7054
3816.35  	41.7072
3819.22  	41.7138
3822.1  	41.5585
3824.97  	41.6255
3827.84  	41.6852
3830.72  	41.598
3833.59  	41.6655
3836.46  	41.6448
3839.34  	41.639
3842.21  	41.5812
3845.09  	41.5185
3847.96  	41.6142
3850.83  	41.5691
3853.71  	41.5888
3856.58  	41.5485
3859.45  	41.5373
3862.33  	41.5133
3865.2  	41.533
3868.08  	41.4566
3870.95  	41.5854
3873.82  	41.5049
3876.7  	41.4973
3879.57  	41.3893
3882.44  	41.4508
3885.32  	41.4138
3888.19  	41.519
3891.07  	41.3882
3893.94  	41.4867
3896.81  	41.369
3899.69  	41.383
3902.56  	41.4407
3905.43  	41.3722
3908.31  	41.2944
3911.18  	41.3402
3914.06  	41.3757
3916.93  	41.357
3919.8  	41.3464
3922.68  	41.3309
3925.55  	41.2907
3928.42  	41.2525
3931.3  	41.257
3934.17  	41.3255
3937.05  	41.3149
3939.92  	41.2868
3942.79  	41.2543
3945.67  	41.2584
3948.54  	41.2648
3951.41  	41.2755
3954.29  	41.2745
3957.16  	41.2736
3960.04  	41.2431
3962.91  	41.269
3965.78  	41.2521
3968.66  	41.235
3971.53  	41.229
3974.4  	41.2262
3977.28  	41.218
3980.15  	41.2484
3983.03  	41.2257
3985.9  	41.143
3988.77  	41.142
3991.65  	41.1484
3994.52  	41.1771
3997.39  	41.1837
4000.27  	41.1958