File: FTIR/ILUM_29-10-2024/MoS2_NS_Amonia_1.txt
##TITLE=No Description
##DATA TYPE=INFRARED SPECTRUM
##XUNITS=1/CM
##YUNITS=%T
399.452  	24.537
402.326  	25.5102
405.2  	25.2083
408.073  	26.2212
410.947  	24.6821
413.821  	25.7181
416.695  	24.4876
419.568  	25.4631
422.442  	24.8126
425.316  	25.6425
428.19  	25.7169
431.063  	25.2182
433.937  	24.5292
436.811  	25.2213
439.685  	25.5362
442.558  	25.4912
445.432  	25.6326
448.306  	25.846
451.18  	25.916
454.053  	26.0408
456.927  	25.6666
459.801  	25.6427
462.675  	25.383
465.548  	26.0792
468.422  	26.6619
471.296  	25.357
474.17  	25.6338
477.043  	26.4413
479.917  	26.6121
482.791  	26.5535
485.665  	26.9163
488.538  	26.9498
491.412  	26.8522
494.286  	26.6572
497.16  	26.8786
500.034  	26.5525
502.907  	26.4995
505.781  	26.4711
508.655  	26.2409
511.529  	26.1712
514.402  	26.1119
517.276  	26.1225
520.15  	25.801
523.024  	25.7108
525.897  	25.6493
528.771  	25.3636
531.645  	25.3191
534.519  	25.202
537.392  	25.0608
540.266  	24.9224
543.14  	24.6469
546.014  	24.5652
548.887  	24.4416
551.761  	24.292
554.635  	24.0451
557.509  	24.0752
560.382  	23.829
563.256  	23.8069
566.13  	23.4622
569.004  	23.5349
571.877  	23.4651
574.751  	23.4639
577.625  	23.362
580.499  	23.4205
583.372  	23.4746
586.246  	23.501
589.12  	23.6289
591.994  	23.6928
594.867  	23.6898
597.741  	23.8318
600.615  	23.9324
603.489  	23.9041
606.362  	24.0155
609.236  	24.1494
612.11  	24.2692
614.984  	24.3715
617.858  	24.5056
620.731  	24.6601
623.605  	24.7524
626.479  	24.7943
629.353  	24.874
632.226  	24.709
635.1  	24.9223
637.974  	24.9645
640.848  	25.0007
643.721  	24.9947
646.595  	25.0229
649.469  	24.9982
652.343  	24.9946
655.216  	25.0177
658.09  	25.092
660.964  	25.2814
663.838  	25.4123
666.711  	25.3991
669.585  	25.7522
672.459  	25.7474
675.333  	25.7361
678.206  	25.6508
681.08  	25.6065
683.954  	25.5146
686.828  	25.507
689.701  	25.4693
692.575  	25.3777
695.449  	25.3734
698.323  	25.3957
701.196  	25.395
704.07  	25.4697
706.944  	25.5034
709.818  	25.5858
712.691  	25.7082
715.565  	25.8104
718.439  	25.9538
721.313  	26.0583
724.186  	26.2088
727.06  	26.3116
729.934  	26.4537
732.808  	26.5361
735.681  	26.6586
738.555  	26.708
741.429  	26.8355
744.303  	26.9458
747.177  	27.0078
750.05  	27.0971
752.924  	27.2208
755.798  	27.2613
758.672  	27.4435
761.545  	27.5842
764.419  	27.798
767.293  	28.1154
770.167  	28.3966
773.04  	28.7253
775.914  	29.0884
778.788  	29.4832
781.662  	29.8127
784.535  	30.1394
787.409  	30.4657
790.283  	30.8146
793.157  	31.1241
796.03  	31.4749
798.904  	31.8293
801.778  	32.1407
804.652  	32.49
807.525  	32.7207
810.399  	32.9729
813.273  	33.1515
816.147  	33.3638
819.02  	33.3707
821.894  	33.4012
824.768  	33.4121
827.642  	33.3328
830.515  	33.1557
833.389  	32.9447
836.263  	32.7942
839.137  	32.5945
842.01  	32.4124
844.884  	32.2516
847.758  	32.0669
850.632  	31.8825
853.505  	31.8195
856.379  	31.6904
859.253  	31.6439
862.127  	31.5566
865.001  	31.4383
867.874  	31.3507
870.748  	31.2294
873.622  	31.061
876.496  	30.9231
879.369  	30.6896
882.243  	30.4179
885.117  	29.966
887.991  	29.527
890.864  	28.9697
893.738  	28.4782
896.612  	28.0071
899.486  	27.7184
902.359  	27.6215
905.233  	27.6921
908.107  	27.9141
910.981  	28.291
913.854  	28.7898
916.728  	29.245
919.602  	29.639
922.476  	29.8918
925.349  	30.0031
928.223  	29.8914
931.097  	29.6052
933.971  	29.4113
936.844  	29.3085
939.718  	29.4871
942.592  	29.9421
945.466  	30.6359
948.339  	31.4296
951.213  	32.3004
954.087  	33.1898
956.961  	34.1308
959.834  	35.0138
962.708  	35.9291
965.582  	36.8036
968.456  	37.5931
971.329  	38.337
974.203  	38.9643
977.077  	39.4034
979.951  	39.7235
982.824  	39.9683
985.698  	40.2309
988.572  	40.3159
991.446  	40.1219
994.32  	39.7798
997.193  	39.4211
1000.07  	39.0398
1002.94  	38.5645
1005.81  	38.0907
1008.69  	37.5319
1011.56  	36.777
1014.44  	35.9288
1017.31  	35.0838
1020.18  	34.4237
1023.06  	34.0618
1025.93  	33.8339
1028.8  	33.6423
1031.68  	33.6542
1034.55  	33.9359
1037.43  	34.3208
1040.3  	34.8122
1043.17  	35.4331
1046.05  	36.0816
1048.92  	36.5732
1051.79  	36.8742
1054.67  	37.1216
1057.54  	37.3609
1060.42  	37.537
1063.29  	37.6747
1066.16  	37.6193
1069.04  	37.5115
1071.91  	37.2867
1074.78  	36.988
1077.66  	36.6765
1080.53  	36.3732
1083.41  	35.967
1086.28  	35.5774
1089.15  	35.0868
1092.03  	34.5938
1094.9  	34.1435
1097.77  	33.6602
1100.65  	33.2282
1103.52  	32.9178
1106.4  	32.6831
1109.27  	32.5596
1112.14  	32.5724
1115.02  	32.6582
1117.89  	32.7829
1120.76  	32.9903
1123.64  	33.2138
1126.51  	33.5783
1129.39  	33.9377
1132.26  	34.3047
1135.13  	34.5658
1138.01  	34.763
1140.88  	34.8807
1143.75  	34.9513
1146.63  	34.9662
1149.5  	34.9263
1152.38  	34.8479
1155.25  	34.8327
1158.12  	34.7747
1161  	34.6907
1163.87  	34.6494
1166.74  	34.607
1169.62  	34.5658
1172.49  	34.5675
1175.37  	34.6474
1178.24  	34.7573
1181.11  	34.9406
1183.99  	35.1285
1186.86  	35.4175
1189.73  	35.6878
1192.61  	36.0227
1195.48  	36.3682
1198.36  	36.7272
1201.23  	37.083
1204.1  	37.4601
1206.98  	37.8609
1209.85  	38.2265
1212.72  	38.5886
1215.6  	38.9327
1218.47  	39.2345
1221.35  	39.524
1224.22  	39.7484
1227.09  	39.9735
1229.97  	40.1792
1232.84  	40.4095
1235.72  	40.6405
1238.59  	40.8243
1241.46  	41.0407
1244.34  	41.293
1247.21  	41.4721
1250.08  	41.6425
1252.96  	41.7706
1255.83  	41.9453
1258.71  	41.982
1261.58  	42.0575
1264.45  	42.1091
1267.33  	42.1306
1270.2  	42.1128
1273.07  	42.0742
1275.95  	41.9992
1278.82  	41.8891
1281.7  	41.7971
1284.57  	41.6451
1287.44  	41.5086
1290.32  	41.3663
1293.19  	41.22
1296.06  	41.0295
1298.94  	40.8663
1301.81  	40.6789
1304.69  	40.5122
1307.56  	40.3488
1310.43  	40.2091
1313.31  	40.0951
1316.18  	40.0443
1319.05  	40.0442
1321.93  	40.098
1324.8  	40.0521
1327.68  	40.0098
1330.55  	39.9401
1333.42  	39.8769
1336.3  	39.7251
1339.17  	39.5655
1342.04  	39.5616
1344.92  	39.3852
1347.79  	39.231
1350.67  	39.0652
1353.54  	38.8559
1356.41  	38.7587
1359.29  	38.49
1362.16  	38.2145
1365.03  	38.0482
1367.91  	37.6988
1370.78  	37.4962
1373.66  	37.149
1376.53  	37.1487
1379.4  	36.8554
1382.28  	36.6126
1385.15  	36.3085
1388.02  	36.1909
1390.9  	35.8977
1393.77  	35.436
1396.65  	35.3201
1399.52  	35.0061
1402.39  	34.6228
1405.27  	34.3668
1408.14  	34.1449
1411.01  	33.9483
1413.89  	33.8053
1416.76  	33.5285
1419.64  	34.0925
1422.51  	33.9276
1425.38  	34.3197
1428.26  	34.24
1431.13  	34.8084
1434  	34.937
1436.88  	35.4536
1439.75  	36.0435
1442.63  	36.3845
1445.5  	36.7886
1448.37  	37.286
1451.25  	37.6448
1454.12  	38.0231
1456.99  	38.491
1459.87  	39.3009
1462.74  	39.2401
1465.62  	39.8181
1468.49  	40.0147
1471.36  	39.9011
1474.24  	40.4691
1477.11  	40.4965
1479.98  	40.4676
1482.86  	40.5746
1485.73  	40.3707
1488.61  	40.3596
1491.48  	40.6693
1494.35  	40.2745
1497.23  	40.3953
1500.1  	40.3412
1502.97  	40.1591
1505.85  	39.4421
1508.72  	40.5365
1511.6  	39.9063
1514.47  	39.6778
1517.34  	39.6569
1520.22  	39.0344
1523.09  	39.6303
1525.96  	39.1971
1528.84  	39.2046
1531.71  	38.6024
1534.59  	39.0679
1537.46  	37.9639
1540.33  	38.3758
1543.21  	38.3825
1546.08  	38.3347
1548.95  	37.5988
1551.83  	37.5117
1554.7  	37.2106
1557.58  	36.1023
1560.45  	38.0284
1563.32  	36.4573
1566.2  	36.2972
1569.07  	35.7365
1571.94  	35.9076
1574.82  	35.1591
1577.69  	35.6443
1580.57  	35.2106
1583.44  	35.0586
1586.31  	34.9085
1589.19  	34.7435
1592.06  	34.6788
1594.93  	34.5607
1597.81  	34.6073
1600.68  	34.4964
1603.56  	34.5964
1606.43  	34.6024
1609.3  	34.8052
1612.18  	34.9492
1615.05  	34.6143
1617.92  	35.6368
1620.8  	35.3515
1623.67  	35.8649
1626.55  	35.9688
1629.42  	36.4944
1632.29  	36.4158
1635.17  	36.3692
1638.04  	37.5647
1640.91  	37.3142
1643.79  	37.2095
1646.66  	37.3523
1649.54  	38.1582
1652.41  	36.8812
1655.28  	39.2529
1658.16  	38.6331
1661.03  	38.5454
1663.9  	39.1073
1666.78  	38.8362
1669.65  	39.2756
1672.53  	39.6789
1675.4  	39.7707
1678.27  	39.9291
1681.15  	40.018
1684.02  	40.0301
1686.89  	40.5635
1689.77  	40.4412
1692.64  	40.5025
1695.52  	40.1601
1698.39  	40.3969
1701.26  	41.5128
1704.14  	40.5848
1707.01  	41.1481
1709.88  	41.0035
1712.76  	40.9358
1715.63  	41.1076
1718.51  	41.6744
1721.38  	41.6282
1724.25  	41.6605
1727.13  	41.614
1730  	41.6398
1732.87  	41.2455
1735.75  	42.435
1738.62  	41.4475
1741.5  	41.6736
1744.37  	41.6174
1747.24  	41.3852
1750.12  	41.3949
1752.99  	41.6399
1755.86  	41.2941
1758.74  	41.3912
1761.61  	41.1046
1764.49  	41.2443
1767.36  	40.9594
1770.23  	40.8835
1773.11  	41.2895
1775.98  	41.0291
1778.85  	40.906
1781.73  	41.0006
1784.6  	40.8366
1787.48  	40.8782
1790.35  	40.3697
1793.22  	40.9675
1796.1  	40.682
1798.97  	40.5632
1801.84  	40.7463
1804.72  	40.5675
1807.59  	40.4205
1810.47  	40.382
1813.34  	40.5628
1816.21  	40.2998
1819.09  	40.2811
1821.96  	40.2871
1824.83  	40.2332
1827.71  	40.1561
1830.58  	40.3325
1833.46  	40.1604
1836.33  	40.0916
1839.2  	40.1432
1842.08  	39.8025
1844.95  	40.1508
1847.83  	40.0079
1850.7  	40.0686
1853.57  	39.9986
1856.45  	39.9037
1859.32  	39.9061
1862.19  	39.8301
1865.07  	39.8135
1867.94  	39.5769
1870.82  	40.157
1873.69  	39.7811
1876.56  	39.89
1879.44  	39.8315
1882.31  	39.7285
1885.18  	39.6517
1888.06  	39.497
1890.93  	39.8808
1893.81  	39.5261
1896.68  	39.6128
1899.55  	39.6686
1902.43  	39.5162
1905.3  	39.5747
1908.17  	39.3827
1911.05  	39.5347
1913.92  	39.5017
1916.8  	39.3695
1919.67  	39.6047
1922.54  	39.4977
1925.42  	39.6141
1928.29  	39.4455
1931.16  	39.6265
1934.04  	39.5325
1936.91  	39.6111
1939.79  	39.4923
1942.66  	39.4947
1945.53  	39.7331
1948.41  	39.8166
1951.28  	39.6841
1954.15  	39.7999
1957.03  	39.8014
1959.9  	39.8518
1962.78  	40.2556
1965.65  	40.1776
1968.52  	41.0915
1971.4  	40.3276
1974.27  	40.746
1977.14  	40.732
1980.02  	40.4525
1982.89  	40.395
1985.77  	39.8266
1988.64  	40.1389
1991.51  	40.0762
1994.39  	40.3612
1997.26  	40.2348
2000.13  	40.0688
2003.01  	40.1345
2005.88  	40.3447
2008.76  	40.1552
2011.63  	40.7244
2014.5  	40.9973
2017.38  	40.5538
2020.25  	40.6335
2023.12  	40.9845
2026  	40.8135
2028.87  	41.36
2031.75  	40.8361
2034.62  	40.7599
2037.49  	40.3744
2040.37  	40.264
2043.24  	39.8672
2046.11  	39.8405
2048.99  	39.9522
2051.86  	39.6042
2054.74  	39.4946
2057.61  	39.2223
2060.48  	39.2543
2063.36  	39.1791
2066.23  	39.12
2069.1  	38.9993
2071.98  	38.9332
2074.85  	38.8622
2077.73  	38.9415
2080.6  	38.7713
2083.47  	38.6493
2086.35  	38.7789
2089.22  	38.5233
2092.09  	38.4901
2094.97  	38.568
2097.84  	38.4331
2100.72  	38.4168
2103.59  	38.4696
2106.46  	38.3457
2109.34  	38.3618
2112.21  	38.3111
2115.08  	38.365
2117.96  	38.1434
2120.83  	38.098
2123.71  	38.121
2126.58  	38.2505
2129.45  	38.178
2132.33  	38.3354
2135.2  	38.5857
2138.07  	38.7201
2140.95  	38.758
2143.82  	38.7517
2146.7  	38.8785
2149.57  	39.1416
2152.44  	39.1952
2155.32  	39.5446
2158.19  	40.0622
2161.06  	39.8396
2163.94  	39.7814
2166.81  	39.3628
2169.69  	39.5138
2172.56  	39.1909
2175.43  	39.4553
2178.31  	38.787
2181.18  	39.1758
2184.05  	39.3457
2186.93  	39.0146
2189.8  	39.0538
2192.68  	38.9995
2195.55  	38.8598
2198.42  	38.5064
2201.3  	38.4366
2204.17  	38.4675
2207.04  	38.4402
2209.92  	38.3948
2212.79  	38.3396
2215.67  	38.1722
2218.54  	38.3344
2221.41  	38.1761
2224.29  	38.265
2227.16  	38.1538
2230.03  	38.014
2232.91  	37.963
2235.78  	37.9574
2238.66  	37.8844
2241.53  	37.8386
2244.4  	37.6014
2247.28  	37.6152
2250.15  	37.5643
2253.02  	37.4888
2255.9  	37.5519
2258.77  	37.406
2261.65  	37.3846
2264.52  	37.2917
2267.39  	37.2001
2270.27  	37.2672
2273.14  	37.143
2276.01  	37.0672
2278.89  	37.0517
2281.76  	36.9859
2284.64  	36.9555
2287.51  	36.8834
2290.38  	36.7919
2293.26  	36.7984
2296.13  	36.73
2299  	36.5957
2301.88  	36.5211
2304.75  	36.5262
2307.63  	36.4721
2310.5  	36.4353
2313.37  	36.3351
2316.25  	36.3611
2319.12  	36.2722
2321.99  	36.2384
2324.87  	36.2629
2327.74  	36.1261
2330.62  	36.0762
2333.49  	36.0528
2336.36  	36.0752
2339.24  	36.0623
2342.11  	36.1177
2344.98  	36.108
2347.86  	36.209
2350.73  	35.8234
2353.61  	35.8727
2356.48  	35.8009
2359.35  	35.887
2362.23  	35.9402
2365.1  	36.0295
2367.97  	36.0685
2370.85  	36.0162
2373.72  	36.038
2376.6  	36.0721
2379.47  	36.0998
2382.34  	36.0772
2385.22  	35.9554
2388.09  	35.9851
2390.96  	35.9702
2393.84  	36.0163
2396.71  	36.0095
2399.59  	36.0109
2402.46  	35.9687
2405.33  	35.943
2408.21  	35.9012
2411.08  	35.8515
2413.95  	35.8283
2416.83  	35.8196
2419.7  	35.7859
2422.58  	35.819
2425.45  	35.7744
2428.32  	35.7472
2431.2  	35.7237
2434.07  	35.7126
2436.94  	35.6625
2439.82  	35.6957
2442.69  	35.685
2445.57  	35.6557
2448.44  	35.5982
2451.31  	35.6007
2454.19  	35.5838
2457.06  	35.5822
2459.93  	35.5222
2462.81  	35.6077
2465.68  	35.5768
2468.56  	35.4713
2471.43  	35.432
2474.3  	35.4526
2477.18  	35.3934
2480.05  	35.4653
2482.93  	35.4935
2485.8  	35.4494
2488.67  	35.4198
2491.55  	35.3831
2494.42  	35.3713
2497.29  	35.3506
2500.17  	35.3072
2503.04  	35.3105
2505.92  	35.2876
2508.79  	35.2704
2511.66  	35.3146
2514.54  	35.258
2517.41  	35.2242
2520.28  	35.2097
2523.16  	35.2502
2526.03  	35.1915
2528.91  	35.1679
2531.78  	35.1228
2534.65  	35.1502
2537.53  	35.1515
2540.4  	35.0962
2543.27  	35.104
2546.15  	35.0607
2549.02  	35.0275
2551.9  	35.0568
2554.77  	35.0662
2557.64  	34.9528
2560.52  	34.9901
2563.39  	35.0209
2566.26  	34.9271
2569.14  	34.9525
2572.01  	34.8777
2574.89  	34.8947
2577.76  	34.8414
2580.63  	34.8147
2583.51  	34.8391
2586.38  	34.8408
2589.25  	34.8001
2592.13  	34.7641
2595  	34.7985
2597.88  	34.7415
2600.75  	34.7209
2603.62  	34.6924
2606.5  	34.6773
2609.37  	34.7164
2612.24  	34.6633
2615.12  	34.5885
2617.99  	34.6154
2620.87  	34.6191
2623.74  	34.5597
2626.61  	34.5454
2629.49  	34.5084
2632.36  	34.5061
2635.23  	34.4333
2638.11  	34.4153
2640.98  	34.3865
2643.86  	34.3382
2646.73  	34.2983
2649.6  	34.2991
2652.48  	34.2345
2655.35  	34.2256
2658.22  	34.1707
2661.1  	34.135
2663.97  	34.1176
2666.85  	34.0761
2669.72  	34.0493
2672.59  	34.0257
2675.47  	34.0297
2678.34  	33.9636
2681.21  	33.9421
2684.09  	33.9366
2686.96  	33.8872
2689.84  	33.8321
2692.71  	33.7985
2695.58  	33.7732
2698.46  	33.7659
2701.33  	33.7262
2704.2  	33.6886
2707.08  	33.6984
2709.95  	33.7004
2712.83  	33.6236
2715.7  	33.6136
2718.57  	33.5766
2721.45  	33.5356
2724.32  	33.5186
2727.19  	33.514
2730.07  	33.4661
2732.94  	33.4273
2735.82  	33.3822
2738.69  	33.4077
2741.56  	33.3711
2744.44  	33.3351
2747.31  	33.2777
2750.18  	33.3292
2753.06  	33.2795
2755.93  	33.2431
2758.81  	33.227
2761.68  	33.1773
2764.55  	33.1698
2767.43  	33.1398
2770.3  	33.0977
2773.17  	33.0946
2776.05  	33.058
2778.92  	33.0319
2781.8  	33.0217
2784.67  	33.0108
2787.54  	32.97
2790.42  	32.961
2793.29  	32.8764
2796.16  	32.8812
2799.04  	32.8186
2801.91  	32.8512
2804.79  	32.8159
2807.66  	32.7649
2810.53  	32.7634
2813.41  	32.7226
2816.28  	32.7116
2819.15  	32.6909
2822.03  	32.6976
2824.9  	32.6885
2827.78  	32.6262
2830.65  	32.6022
2833.52  	32.6278
2836.4  	32.6005
2839.27  	32.5869
2842.14  	32.5361
2845.02  	32.5465
2847.89  	32.5335
2850.77  	32.5457
2853.64  	32.5739
2856.51  	32.5605
2859.39  	32.5464
2862.26  	32.4957
2865.13  	32.4893
2868.01  	32.4854
2870.88  	32.5108
2873.76  	32.4608
2876.63  	32.4734
2879.5  	32.4641
2882.38  	32.4775
2885.25  	32.459
2888.12  	32.4627
2891  	32.4418
2893.87  	32.4597
2896.75  	32.4258
2899.62  	32.371
2902.49  	32.4381
2905.37  	32.3577
2908.24  	32.3741
2911.11  	32.3568
2913.99  	32.298
2916.86  	32.3711
2919.74  	32.2945
2922.61  	32.343
2925.48  	32.3356
2928.36  	32.3224
2931.23  	32.3233
2934.1  	32.3299
2936.98  	32.3271
2939.85  	32.3155
2942.73  	32.313
2945.6  	32.2694
2948.47  	32.2804
2951.35  	32.2279
2954.22  	32.2263
2957.09  	32.1983
2959.97  	32.1834
2962.84  	32.192
2965.72  	32.1916
2968.59  	32.2162
2971.46  	32.1786
2974.34  	32.1992
2977.21  	32.181
2980.08  	32.2433
2982.96  	32.1814
2985.83  	32.1937
2988.71  	32.2121
2991.58  	32.2502
2994.45  	32.2458
2997.33  	32.2742
3000.2  	32.2544
3003.07  	32.2418
3005.95  	32.2324
3008.82  	32.239
3011.7  	32.225
3014.57  	32.2034
3017.44  	32.23
3020.32  	32.2184
3023.19  	32.1638
3026.06  	32.2022
3028.94  	32.1577
3031.81  	32.2296
3034.69  	32.2056
3037.56  	32.2101
3040.43  	32.3046
3043.31  	32.2179
3046.18  	32.2562
3049.05  	32.2769
3051.93  	32.2427
3054.8  	32.2659
3057.68  	32.3812
3060.55  	32.3204
3063.42  	32.321
3066.3  	32.3698
3069.17  	32.3448
3072.04  	32.3747
3074.92  	32.4443
3077.79  	32.4422
3080.67  	32.46
3083.54  	32.5707
3086.41  	32.5395
3089.29  	32.5074
3092.16  	32.5895
3095.04  	32.5372
3097.91  	32.5477
3100.78  	32.5183
3103.66  	32.5937
3106.53  	32.5839
3109.4  	32.6194
3112.28  	32.6641
3115.15  	32.5997
3118.03  	32.5854
3120.9  	32.6182
3123.77  	32.623
3126.65  	32.5734
3129.52  	32.6317
3132.39  	32.5043
3135.27  	32.4989
3138.14  	32.5903
3141.02  	32.5322
3143.89  	32.5675
3146.76  	32.5235
3149.64  	32.5215
3152.51  	32.525
3155.38  	32.5032
3158.26  	32.5201
3161.13  	32.5365
3164.01  	32.5515
3166.88  	32.4556
3169.75  	32.5579
3172.63  	32.6046
3175.5  	32.5939
3178.37  	32.5494
3181.25  	32.6265
3184.12  	32.611
3187  	32.5934
3189.87  	32.6169
3192.74  	32.7094
3195.62  	32.6617
3198.49  	32.6752
3201.36  	32.7829
3204.24  	32.831
3207.11  	32.9231
3209.99  	32.9406
3212.86  	32.9733
3215.73  	33.0617
3218.61  	33.0506
3221.48  	33.1926
3224.35  	33.2318
3227.23  	33.1294
3230.1  	33.2865
3232.98  	33.4314
3235.85  	33.4481
3238.72  	33.5198
3241.6  	33.4825
3244.47  	33.5798
3247.34  	33.7488
3250.22  	33.7502
3253.09  	33.705
3255.97  	33.8421
3258.84  	33.8782
3261.71  	33.9171
3264.59  	34.0591
3267.46  	34.1099
3270.33  	34.0673
3273.21  	34.1822
3276.08  	34.3039
3278.96  	34.2315
3281.83  	34.2154
3284.7  	34.2887
3287.58  	34.3297
3290.45  	34.3207
3293.32  	34.4465
3296.2  	34.4457
3299.07  	34.4387
3301.95  	34.4543
3304.82  	34.4262
3307.69  	34.398
3310.57  	34.4395
3313.44  	34.5055
3316.31  	34.5251
3319.19  	34.476
3322.06  	34.4697
3324.94  	34.4546
3327.81  	34.4861
3330.68  	34.5253
3333.56  	34.5281
3336.43  	34.4814
3339.3  	34.5521
3342.18  	34.5856
3345.05  	34.6111
3347.93  	34.5554
3350.8  	34.4466
3353.67  	34.4765
3356.55  	34.4992
3359.42  	34.5822
3362.29  	34.5712
3365.17  	34.6412
3368.04  	34.5936
3370.92  	34.5551
3373.79  	34.5223
3376.66  	34.5864
3379.54  	34.6191
3382.41  	34.6642
3385.28  	34.6915
3388.16  	34.6089
3391.03  	34.7004
3393.91  	34.7587
3396.78  	34.6313
3399.65  	34.7489
3402.53  	34.7172
3405.4  	34.7743
3408.27  	34.8218
3411.15  	34.6334
3414.02  	34.8259
3416.9  	34.7959
3419.77  	34.7984
3422.64  	35.0266
3425.52  	34.8869
3428.39  	34.9362
3431.26  	34.9502
3434.14  	34.9966
3437.01  	35.0613
3439.89  	34.9915
3442.76  	35.0524
3445.63  	34.9999
3448.51  	35.2352
3451.38  	35.1103
3454.25  	35.077
3457.13  	35.2273
3460  	35.1607
3462.88  	35.2091
3465.75  	35.3448
3468.62  	35.3703
3471.5  	35.4108
3474.37  	35.3489
3477.24  	35.5714
3480.12  	35.5027
3482.99  	35.6197
3485.87  	35.4666
3488.74  	35.5744
3491.61  	35.6016
3494.49  	35.53
3497.36  	35.6719
3500.23  	35.6135
3503.11  	35.6976
3505.98  	35.8841
3508.86  	35.7957
3511.73  	35.9557
3514.6  	35.8791
3517.48  	35.8478
3520.35  	35.8854
3523.22  	35.8848
3526.1  	36.1022
3528.97  	36.1246
3531.85  	36.2078
3534.72  	36.1775
3537.59  	36.0988
3540.47  	36.0952
3543.34  	36.1037
3546.21  	36.2302
3549.09  	36.4641
3551.96  	36.2275
3554.84  	36.3665
3557.71  	36.3824
3560.58  	36.3883
3563.46  	36.2855
3566.33  	35.9496
3569.2  	36.976
3572.08  	36.6782
3574.95  	36.7219
3577.83  	36.7585
3580.7  	36.7554
3583.57  	36.7533
3586.45  	36.5661
3589.32  	37.31
3592.19  	37.0104
3595.07  	37.1441
3597.94  	37.1653
3600.82  	37.1815
3603.69  	37.3281
3606.56  	37.0871
3609.44  	37.4155
3612.31  	37.3532
3615.18  	37.7399
3618.06  	37.2635
3620.93  	37.8843
3623.81  	37.6891
3626.68  	37.3667
3629.55  	37.9974
3632.43  	38.049
3635.3  	38.0663
3638.17  	37.7178
3641.05  	37.6975
3643.92  	37.7735
3646.8  	37.1911
3649.67  	37.7395
3652.54  	38.7635
3655.42  	37.6007
3658.29  	38.4024
3661.16  	37.8605
3664.04  	37.7994
3666.91  	37.5426
3669.79  	37.1871
3672.66  	37.9719
3675.53  	37.4095
3678.41  	38.0372
3681.28  	37.7931
3684.15  	37.5849
3687.03  	36.9878
3689.9  	37.4831
3692.78  	37.7493
3695.65  	37.4683
3698.52  	37.4882
3701.4  	37.215
3704.27  	37.4503
3707.15  	37.1864
3710.02  	37.0169
3712.89  	37.4843
3715.77  	37.3268
3718.64  	37.2315
3721.51  	37.0398
3724.39  	37.0977
3727.26  	37.2443
3730.14  	36.7796
3733.01  	37.0162
3735.88  	37.001
3738.76  	37.2483
3741.63  	36.9207
3744.5  	36.3377
3747.38  	37.0134
3750.25  	36.5485
3753.13  	37.4698
3756  	36.9284
3758.87  	36.932
3761.75  	37.1274
3764.62  	36.5514
3767.49  	36.8971
3770.37  	36.7888
3773.24  	37.0112
3776.12  	36.754
3778.99  	36.5106
3781.86  	37.0068
3784.74  	36.735
3787.61  	36.8158
3790.48  	36.8577
3793.36  	36.6192
3796.23  	36.212
3799.11  	36.4473
3801.98  	36.5659
3804.85  	36.5551
3807.73  	36.9231
3810.6  	36.6753
3813.47  	36.2807
3816.35  	36.1312
3819.22  	36.0137
3822.1  	36.9267
3824.97  	36.442
3827.84  	36.8248
3830.72  	36.1257
3833.59  	36.2209
3836.46  	36.0462
3839.34  	36.4895
3842.21  	36.5672
3845.09  	36.6658
3847.96  	36.3567
3850.83  	35.7306
3853.71  	36.0421
3856.58  	36.8922
3859.45  	36.4092
3862.33  	36.2147
3865.2  	36.3174
3868.08  	36.096
3870.95  	36.6208
3873.82  	36.1962
3876.7  	36.6989
3879.57  	35.8506
3882.44  	36.5782
3885.32  	35.9849
3888.19  	36.6911
3891.07  	36.0658
3893.94  	36.5453
3896.81  	36.0623
3899.69  	35.9557
3902.56  	36.1594
3905.43  	36.5457
3908.31  	36.4634
3911.18  	36.2047
3914.06  	36.2273
3916.93  	36.1411
3919.8  	36.2334
3922.68  	36.1672
3925.55  	36.3022
3928.42  	36.1892
3931.3  	36.1698
3934.17  	36.3277
3937.05  	36.1595
3939.92  	36.2348
3942.79  	36.1552
3945.67  	36.2516
3948.54  	36.157
3951.41  	36.2795
3954.29  	36.2402
3957.16  	36.1812
3960.04  	36.1245
3962.91  	36.1914
3965.78  	36.1869
3968.66  	36.0958
3971.53  	36.1009
3974.4  	36.0901
3977.28  	36.1354
3980.15  	36.0886
3983.03  	36.1278
3985.9  	36.0896
3988.77  	36.1132
3991.65  	36.1538
3994.52  	36.096
3997.39  	36.0999
4000.27  	36.088