File: FTIR/ILUM_29-10-2024/Silica_S7_1.txt
##TITLE=No Description
##DATA TYPE=INFRARED SPECTRUM
##XUNITS=1/CM
##YUNITS=%T
399.452  	35.6277
402.326  	32.3909
405.2  	30.0708
408.073  	29.9682
410.947  	27.8412
413.821  	28.0533
416.695  	24.7495
419.568  	23.9077
422.442  	24.6405
425.316  	22.6141
428.19  	21.6316
431.063  	20.28
433.937  	20.823
436.811  	19.8357
439.685  	19.1365
442.558  	19.4351
445.432  	19.4067
448.306  	19.1298
451.18  	19.5596
454.053  	20.6619
456.927  	22.2333
459.801  	22.5741
462.675  	24.0859
465.548  	26.457
468.422  	29.2539
471.296  	31.5877
474.17  	35.3396
477.043  	39.3188
479.917  	43.9068
482.791  	47.7991
485.665  	51.8883
488.538  	56.416
491.412  	59.8701
494.286  	62.5176
497.16  	64.9352
500.034  	66.4396
502.907  	68.2117
505.781  	69.276
508.655  	69.8822
511.529  	70.5056
514.402  	71.2236
517.276  	71.1013
520.15  	71.4624
523.024  	71.5583
525.897  	71.5193
528.771  	71.2934
531.645  	71.5051
534.519  	71.2597
537.392  	71.0703
540.266  	71.0713
543.14  	71.1613
546.014  	71.038
548.887  	71.1319
551.761  	71.2144
554.635  	71.5785
557.509  	71.6955
560.382  	71.9372
563.256  	72.3204
566.13  	72.2988
569.004  	72.8531
571.877  	73.3442
574.751  	73.62
577.625  	74.175
580.499  	74.4549
583.372  	74.717
586.246  	75.3394
589.12  	75.8304
591.994  	76.2196
594.867  	76.6663
597.741  	77.0508
600.615  	77.4888
603.489  	77.7762
606.362  	78.0955
609.236  	78.4871
612.11  	78.8129
614.984  	78.9915
617.858  	79.1414
620.731  	79.4284
623.605  	79.6286
626.479  	79.7633
629.353  	79.829
632.226  	79.9504
635.1  	80.0364
637.974  	80.1259
640.848  	80.239
643.721  	80.3515
646.595  	80.4807
649.469  	80.5874
652.343  	80.6895
655.216  	80.8109
658.09  	80.8461
660.964  	80.9795
663.838  	81.0748
666.711  	81.1465
669.585  	81.2049
672.459  	81.1038
675.333  	81.191
678.206  	81.273
681.08  	81.294
683.954  	81.3487
686.828  	81.3228
689.701  	81.3606
692.575  	81.3276
695.449  	81.3116
698.323  	81.3452
701.196  	81.349
704.07  	81.3082
706.944  	81.2931
709.818  	81.2819
712.691  	81.2592
715.565  	81.2265
718.439  	81.1794
721.313  	81.2072
724.186  	81.1253
727.06  	81.0816
729.934  	80.9416
732.808  	81.0017
735.681  	80.8631
738.555  	80.8394
741.429  	80.7454
744.303  	80.7065
747.177  	80.5823
750.05  	80.505
752.924  	80.5148
755.798  	80.4313
758.672  	80.2721
761.545  	80.1577
764.419  	79.9039
767.293  	79.5201
770.167  	78.524
773.04  	77.347
775.914  	75.7257
778.788  	73.9932
781.662  	72.454
784.535  	71.3393
787.409  	70.4796
790.283  	69.8022
793.157  	69.5454
796.03  	69.5817
798.904  	69.8034
801.778  	70.1875
804.652  	70.7437
807.525  	71.5277
810.399  	72.3971
813.273  	73.407
816.147  	74.5058
819.02  	75.6432
821.894  	76.8272
824.768  	78.2112
827.642  	79.4326
830.515  	80.6988
833.389  	81.9916
836.263  	83.2257
839.137  	84.4002
842.01  	85.3444
844.884  	86.1089
847.758  	86.5946
850.632  	87.0566
853.505  	87.3608
856.379  	87.4323
859.253  	87.5526
862.127  	87.5747
865.001  	87.5052
867.874  	87.4554
870.748  	87.3328
873.622  	87.1483
876.496  	86.9299
879.369  	86.5926
882.243  	86.2748
885.117  	85.7548
887.991  	85.2292
890.864  	84.5724
893.738  	83.8456
896.612  	83.0246
899.486  	82.1527
902.359  	81.3305
905.233  	80.3613
908.107  	79.4221
910.981  	78.4502
913.854  	77.4447
916.728  	76.3418
919.602  	75.3206
922.476  	74.2676
925.349  	73.2889
928.223  	72.3355
931.097  	71.4658
933.971  	70.7795
936.844  	70.1828
939.718  	69.7049
942.592  	69.3664
945.466  	69.1507
948.339  	69.089
951.213  	69.0721
954.087  	69.2129
956.961  	69.6235
959.834  	70.0182
962.708  	70.5954
965.582  	71.3059
968.456  	72.1127
971.329  	73.1287
974.203  	74.1188
977.077  	75.2643
979.951  	76.4565
982.824  	77.6564
985.698  	78.5892
988.572  	79.2303
991.446  	79.46
994.32  	79.1173
997.193  	78.0872
1000.07  	76.4437
1002.94  	74.3831
1005.81  	71.5849
1008.69  	68.1727
1011.56  	64.2885
1014.44  	59.8705
1017.31  	54.9698
1020.18  	49.6557
1023.06  	44.3455
1025.93  	39.2461
1028.8  	34.2924
1031.68  	29.8876
1034.55  	26.197
1037.43  	23.2532
1040.3  	20.7273
1043.17  	18.7467
1046.05  	17.4488
1048.92  	16.5658
1051.79  	15.8372
1054.67  	15.4338
1057.54  	15.4837
1060.42  	15.6318
1063.29  	15.6754
1066.16  	16.0303
1069.04  	16.6673
1071.91  	17.2686
1074.78  	17.8428
1077.66  	18.5508
1080.53  	19.5436
1083.41  	20.5072
1086.28  	21.499
1089.15  	22.7105
1092.03  	24.2703
1094.9  	25.9242
1097.77  	27.7337
1100.65  	30.1574
1103.52  	33.1291
1106.4  	36.4553
1109.27  	40.0515
1112.14  	43.7234
1115.02  	47.0445
1117.89  	49.7138
1120.76  	51.7654
1123.64  	53.3903
1126.51  	54.6234
1129.39  	55.5767
1132.26  	56.2647
1135.13  	56.9971
1138.01  	57.6007
1140.88  	58.1072
1143.75  	58.5392
1146.63  	59.0584
1149.5  	59.5441
1152.38  	59.9117
1155.25  	60.3384
1158.12  	60.8727
1161  	61.3397
1163.87  	61.824
1166.74  	62.312
1169.62  	62.8469
1172.49  	63.468
1175.37  	64.0594
1178.24  	64.6465
1181.11  	65.2591
1183.99  	65.9541
1186.86  	66.5389
1189.73  	67.1995
1192.61  	67.9029
1195.48  	68.6019
1198.36  	69.2283
1201.23  	69.8862
1204.1  	70.5839
1206.98  	71.3139
1209.85  	72.0054
1212.72  	72.7347
1215.6  	73.5645
1218.47  	74.3594
1221.35  	75.1473
1224.22  	76.0651
1227.09  	77.0678
1229.97  	78.0589
1232.84  	79.1073
1235.72  	80.2599
1238.59  	81.5685
1241.46  	82.8491
1244.34  	84.2408
1247.21  	85.7292
1250.08  	87.1848
1252.96  	88.6156
1255.83  	89.9347
1258.71  	91.1088
1261.58  	92.077
1264.45  	92.8009
1267.33  	93.4159
1270.2  	93.9091
1273.07  	94.3363
1275.95  	94.6599
1278.82  	94.9712
1281.7  	95.2263
1284.57  	95.4356
1287.44  	95.6174
1290.32  	95.7718
1293.19  	95.9487
1296.06  	96.078
1298.94  	96.2118
1301.81  	96.3037
1304.69  	96.3777
1307.56  	96.4583
1310.43  	96.5105
1313.31  	96.5774
1316.18  	96.6513
1319.05  	96.699
1321.93  	96.7589
1324.8  	96.8328
1327.68  	96.8983
1330.55  	96.9081
1333.42  	96.943
1336.3  	96.9757
1339.17  	96.9614
1342.04  	97.0353
1344.92  	97.0685
1347.79  	97.1157
1350.67  	97.1165
1353.54  	97.1326
1356.41  	97.2224
1359.29  	97.2151
1362.16  	97.1859
1365.03  	97.2196
1367.91  	97.2551
1370.78  	97.3458
1373.66  	97.2684
1376.53  	97.3152
1379.4  	97.304
1382.28  	97.3738
1385.15  	97.337
1388.02  	97.3443
1390.9  	97.4216
1393.77  	97.4191
1396.65  	97.3888
1399.52  	97.3505
1402.39  	97.394
1405.27  	97.4047
1408.14  	97.4224
1411.01  	97.4153
1413.89  	97.4425
1416.76  	97.4175
1419.64  	97.4239
1422.51  	97.3218
1425.38  	97.4452
1428.26  	97.4756
1431.13  	97.5125
1434  	97.4804
1436.88  	97.5399
1439.75  	97.4158
1442.63  	97.5002
1445.5  	97.5769
1448.37  	97.3803
1451.25  	97.476
1454.12  	97.512
1456.99  	97.4274
1459.87  	97.5038
1462.74  	97.4889
1465.62  	97.5673
1468.49  	97.6418
1471.36  	97.6157
1474.24  	97.6037
1477.11  	97.5576
1479.98  	97.5754
1482.86  	97.6276
1485.73  	97.6214
1488.61  	97.5625
1491.48  	97.5578
1494.35  	97.641
1497.23  	97.5931
1500.1  	97.5637
1502.97  	97.5919
1505.85  	97.7148
1508.72  	97.4489
1511.6  	97.5183
1514.47  	97.5871
1517.34  	97.5792
1520.22  	97.5928
1523.09  	97.5309
1525.96  	97.4809
1528.84  	97.5708
1531.71  	97.5432
1534.59  	97.5261
1537.46  	97.638
1540.33  	97.6239
1543.21  	97.5337
1546.08  	97.5202
1548.95  	97.5705
1551.83  	97.5332
1554.7  	97.6059
1557.58  	97.6208
1560.45  	97.4724
1563.32  	97.406
1566.2  	97.4551
1569.07  	97.4686
1571.94  	97.4667
1574.82  	97.5155
1577.69  	97.4305
1580.57  	97.2609
1583.44  	97.2947
1586.31  	97.2336
1589.19  	97.0923
1592.06  	97.024
1594.93  	96.9063
1597.81  	96.7594
1600.68  	96.5874
1603.56  	96.5092
1606.43  	96.2914
1609.3  	95.9851
1612.18  	95.9885
1615.05  	95.6753
1617.92  	95.5638
1620.8  	95.2779
1623.67  	95.3644
1626.55  	95.176
1629.42  	95.118
1632.29  	95.2174
1635.17  	95.2361
1638.04  	94.9874
1640.91  	95.2681
1643.79  	95.3357
1646.66  	95.3681
1649.54  	95.5736
1652.41  	95.7072
1655.28  	95.8715
1658.16  	95.8576
1661.03  	95.988
1663.9  	96.2396
1666.78  	96.2061
1669.65  	96.4938
1672.53  	96.528
1675.4  	96.4503
1678.27  	96.7938
1681.15  	96.8059
1684.02  	97.0329
1686.89  	97.0233
1689.77  	97.0892
1692.64  	97.3343
1695.52  	97.5049
1698.39  	97.3669
1701.26  	97.6501
1704.14  	97.489
1707.01  	97.653
1709.88  	97.6773
1712.76  	97.773
1715.63  	97.8541
1718.51  	97.7778
1721.38  	97.8613
1724.25  	97.8762
1727.13  	97.9771
1730  	98.0384
1732.87  	97.9986
1735.75  	98.0487
1738.62  	97.9842
1741.5  	98.0555
1744.37  	98.0644
1747.24  	98.0401
1750.12  	98.1527
1752.99  	98.1433
1755.86  	98.1005
1758.74  	98.1185
1761.61  	98.0924
1764.49  	98.1129
1767.36  	98.1489
1770.23  	98.1827
1773.11  	98.1959
1775.98  	98.0881
1778.85  	98.1736
1781.73  	98.1809
1784.6  	98.1615
1787.48  	98.2789
1790.35  	98.2028
1793.22  	98.0594
1796.1  	98.0879
1798.97  	98.1441
1801.84  	98.0616
1804.72  	98.1974
1807.59  	98.271
1810.47  	98.1735
1813.34  	98.1855
1816.21  	98.1899
1819.09  	98.1913
1821.96  	98.1753
1824.83  	98.2252
1827.71  	98.176
1830.58  	98.0804
1833.46  	98.1813
1836.33  	98.126
1839.2  	98.156
1842.08  	98.109
1844.95  	98.1085
1847.83  	98.0431
1850.7  	97.9554
1853.57  	97.9653
1856.45  	98.0113
1859.32  	97.9682
1862.19  	97.9342
1865.07  	97.9353
1867.94  	97.9334
1870.82  	97.9206
1873.69  	97.92
1876.56  	97.9979
1879.44  	98.0336
1882.31  	98.126
1885.18  	97.9938
1888.06  	98.0945
1890.93  	98.1437
1893.81  	98.1619
1896.68  	98.3226
1899.55  	98.3878
1902.43  	98.3217
1905.3  	98.2672
1908.17  	98.2144
1911.05  	98.2323
1913.92  	98.3652
1916.8  	98.4097
1919.67  	98.2543
1922.54  	98.4233
1925.42  	98.3982
1928.29  	98.3431
1931.16  	98.4892
1934.04  	98.3616
1936.91  	98.3459
1939.79  	98.396
1942.66  	98.2756
1945.53  	98.2196
1948.41  	98.4617
1951.28  	98.7129
1954.15  	98.1922
1957.03  	98.6808
1959.9  	98.3036
1962.78  	98.4097
1965.65  	98.9543
1968.52  	98.0697
1971.4  	98.4732
1974.27  	98.4359
1977.14  	98.5452
1980.02  	98.387
1982.89  	98.7951
1985.77  	98.5585
1988.64  	98.6673
1991.51  	98.8055
1994.39  	98.8119
1997.26  	98.6927
2000.13  	99.0088
2003.01  	98.8853
2005.88  	98.9825
2008.76  	98.5248
2011.63  	98.6984
2014.5  	99.0909
2017.38  	98.8299
2020.25  	99.1061
2023.12  	99.3603
2026  	99.8353
2028.87  	99.4332
2031.75  	99.6082
2034.62  	99.7497
2037.49  	99.3823
2040.37  	99.6015
2043.24  	99.4896
2046.11  	99.2898
2048.99  	98.9342
2051.86  	99.2946
2054.74  	98.887
2057.61  	99.3682
2060.48  	99.3608
2063.36  	99.3246
2066.23  	99.2293
2069.1  	99.1852
2071.98  	99.2432
2074.85  	99.3664
2077.73  	98.9212
2080.6  	98.9642
2083.47  	98.9677
2086.35  	99.0718
2089.22  	98.9512
2092.09  	98.9293
2094.97  	99.3386
2097.84  	99.0073
2100.72  	98.7296
2103.59  	98.9504
2106.46  	98.8935
2109.34  	99.0253
2112.21  	98.9209
2115.08  	98.9666
2117.96  	98.9495
2120.83  	98.931
2123.71  	99.1416
2126.58  	99.0538
2129.45  	99.0845
2132.33  	99.0608
2135.2  	98.9277
2138.07  	99.3852
2140.95  	99.1916
2143.82  	98.8923
2146.7  	99.5582
2149.57  	99.1427
2152.44  	99.0652
2155.32  	99.5769
2158.19  	99.5247
2161.06  	99.1621
2163.94  	99.2127
2166.81  	99.6904
2169.69  	99.2204
2172.56  	99.115
2175.43  	99.2229
2178.31  	99.1598
2181.18  	99.4973
2184.05  	99.1569
2186.93  	99.2317
2189.8  	98.9292
2192.68  	99.5131
2195.55  	99.1336
2198.42  	99.4117
2201.3  	99.1341
2204.17  	99.4394
2207.04  	99.277
2209.92  	99.1058
2212.79  	99.4027
2215.67  	99.0722
2218.54  	99.3183
2221.41  	99.116
2224.29  	99.2595
2227.16  	99.4325
2230.03  	99.5954
2232.91  	99.4635
2235.78  	99.4411
2238.66  	99.2922
2241.53  	99.3235
2244.4  	99.4327
2247.28  	99.2243
2250.15  	99.1455
2253.02  	99.3906
2255.9  	99.0789
2258.77  	98.9736
2261.65  	99.1971
2264.52  	99.3831
2267.39  	98.9934
2270.27  	99.1128
2273.14  	99.0397
2276.01  	99.1309
2278.89  	98.9822
2281.76  	98.9765
2284.64  	98.8457
2287.51  	98.8996
2290.38  	98.9945
2293.26  	98.9297
2296.13  	98.9151
2299  	98.7839
2301.88  	98.7393
2304.75  	98.7471
2307.63  	98.8081
2310.5  	98.7405
2313.37  	98.7456
2316.25  	98.7465
2319.12  	98.7154
2321.99  	98.6005
2324.87  	98.6705
2327.74  	98.7376
2330.62  	98.7765
2333.49  	98.7997
2336.36  	98.8501
2339.24  	98.8912
2342.11  	98.8655
2344.98  	98.7409
2347.86  	98.7422
2350.73  	98.7584
2353.61  	98.8188
2356.48  	98.7347
2359.35  	98.7119
2362.23  	98.7549
2365.1  	98.8517
2367.97  	98.9541
2370.85  	98.7976
2373.72  	98.7992
2376.6  	98.767
2379.47  	98.8186
2382.34  	98.8703
2385.22  	98.8939
2388.09  	98.9538
2390.96  	98.9695
2393.84  	99.0071
2396.71  	98.997
2399.59  	99.0597
2402.46  	99.0402
2405.33  	99.0108
2408.21  	98.9461
2411.08  	99.1347
2413.95  	99.0743
2416.83  	99.0405
2419.7  	99.0535
2422.58  	99.0075
2425.45  	99.0009
2428.32  	98.9439
2431.2  	98.939
2434.07  	98.9639
2436.94  	98.9157
2439.82  	98.9243
2442.69  	99.0725
2445.57  	98.9554
2448.44  	98.9078
2451.31  	98.9438
2454.19  	99.0099
2457.06  	98.9622
2459.93  	99.0733
2462.81  	99.0907
2465.68  	99.0466
2468.56  	99.0219
2471.43  	98.9931
2474.3  	99.0279
2477.18  	99.013
2480.05  	99.0164
2482.93  	99.0746
2485.8  	99.0202
2488.67  	99.0158
2491.55  	99.0422
2494.42  	99.0059
2497.29  	98.9824
2500.17  	99.0491
2503.04  	99.004
2505.92  	99.0943
2508.79  	99.2023
2511.66  	98.9611
2514.54  	99.067
2517.41  	99.1523
2520.28  	98.9783
2523.16  	99.0764
2526.03  	99.0325
2528.91  	99.1674
2531.78  	99.059
2534.65  	99.1955
2537.53  	99.1461
2540.4  	99.1284
2543.27  	99.1112
2546.15  	99.0487
2549.02  	99.1259
2551.9  	99.1599
2554.77  	99.0915
2557.64  	99.1907
2560.52  	99.1345
2563.39  	99.1084
2566.26  	99.1949
2569.14  	99.1978
2572.01  	99.145
2574.89  	99.1979
2577.76  	99.1853
2580.63  	99.2552
2583.51  	99.2565
2586.38  	99.2482
2589.25  	99.3114
2592.13  	99.2928
2595  	99.2155
2597.88  	99.2837
2600.75  	99.2002
2603.62  	99.1912
2606.5  	99.2533
2609.37  	99.3202
2612.24  	99.2905
2615.12  	99.2894
2617.99  	99.2091
2620.87  	99.1632
2623.74  	99.1334
2626.61  	99.1727
2629.49  	99.1343
2632.36  	99.1739
2635.23  	99.1428
2638.11  	99.1111
2640.98  	99.1011
2643.86  	99.0884
2646.73  	99.0642
2649.6  	99.0367
2652.48  	99.0604
2655.35  	99.0104
2658.22  	99.0343
2661.1  	98.9993
2663.97  	99.0207
2666.85  	99.0175
2669.72  	99.0248
2672.59  	99.0303
2675.47  	98.9654
2678.34  	98.9273
2681.21  	98.9536
2684.09  	98.9643
2686.96  	98.9211
2689.84  	98.9001
2692.71  	98.8921
2695.58  	98.879
2698.46  	98.8956
2701.33  	98.8686
2704.2  	98.8348
2707.08  	98.7579
2709.95  	98.7405
2712.83  	98.7798
2715.7  	98.7251
2718.57  	98.7132
2721.45  	98.7544
2724.32  	98.6966
2727.19  	98.6847
2730.07  	98.7462
2732.94  	98.6741
2735.82  	98.7161
2738.69  	98.7415
2741.56  	98.6633
2744.44  	98.6337
2747.31  	98.6094
2750.18  	98.6246
2753.06  	98.5979
2755.93  	98.5719
2758.81  	98.6079
2761.68  	98.6001
2764.55  	98.5755
2767.43  	98.555
2770.3  	98.5387
2773.17  	98.5248
2776.05  	98.5532
2778.92  	98.49
2781.8  	98.5284
2784.67  	98.5645
2787.54  	98.5299
2790.42  	98.461
2793.29  	98.4382
2796.16  	98.4723
2799.04  	98.3965
2801.91  	98.366
2804.79  	98.4295
2807.66  	98.361
2810.53  	98.3156
2813.41  	98.3389
2816.28  	98.3276
2819.15  	98.2912
2822.03  	98.2823
2824.9  	98.2824
2827.78  	98.2667
2830.65  	98.2617
2833.52  	98.2113
2836.4  	98.1653
2839.27  	98.1571
2842.14  	98.1054
2845.02  	98.1096
2847.89  	98.1599
2850.77  	98.1405
2853.64  	98.0938
2856.51  	98.0995
2859.39  	98.0268
2862.26  	98.0084
2865.13  	98.0272
2868.01  	97.9633
2870.88  	97.9244
2873.76  	97.8541
2876.63  	97.8414
2879.5  	97.8543
2882.38  	97.8438
2885.25  	97.8314
2888.12  	97.8301
2891  	97.803
2893.87  	97.7618
2896.75  	97.7571
2899.62  	97.768
2902.49  	97.7276
2905.37  	97.6991
2908.24  	97.6989
2911.11  	97.6375
2913.99  	97.6171
2916.86  	97.5927
2919.74  	97.5793
2922.61  	97.5541
2925.48  	97.5825
2928.36  	97.5351
2931.23  	97.4244
2934.1  	97.379
2936.98  	97.4254
2939.85  	97.4479
2942.73  	97.3304
2945.6  	97.2806
2948.47  	97.3195
2951.35  	97.2059
2954.22  	97.1948
2957.09  	97.1798
2959.97  	97.1551
2962.84  	97.1218
2965.72  	97.0668
2968.59  	97.0262
2971.46  	97.0496
2974.34  	96.9721
2977.21  	96.9374
2980.08  	96.9642
2982.96  	96.9577
2985.83  	96.8237
2988.71  	96.8313
2991.58  	96.8712
2994.45  	96.7978
2997.33  	96.7526
3000.2  	96.743
3003.07  	96.6172
3005.95  	96.6021
3008.82  	96.6112
3011.7  	96.5468
3014.57  	96.5581
3017.44  	96.4166
3020.32  	96.5256
3023.19  	96.4476
3026.06  	96.436
3028.94  	96.375
3031.81  	96.2878
3034.69  	96.3273
3037.56  	96.2846
3040.43  	96.1704
3043.31  	96.184
3046.18  	96.1619
3049.05  	96.0477
3051.93  	96.0264
3054.8  	95.9665
3057.68  	95.9503
3060.55  	95.9164
3063.42  	95.8938
3066.3  	95.9183
3069.17  	95.7685
3072.04  	95.7924
3074.92  	95.7918
3077.79  	95.6552
3080.67  	95.6557
3083.54  	95.6796
3086.41  	95.5753
3089.29  	95.5305
3092.16  	95.5741
3095.04  	95.5686
3097.91  	95.4662
3100.78  	95.4413
3103.66  	95.4119
3106.53  	95.3305
3109.4  	95.2517
3112.28  	95.2229
3115.15  	95.322
3118.03  	95.2331
3120.9  	95.1161
3123.77  	95.1535
3126.65  	94.987
3129.52  	95.0761
3132.39  	95.018
3135.27  	94.9022
3138.14  	94.9063
3141.02  	94.829
3143.89  	94.8088
3146.76  	94.7896
3149.64  	94.6063
3152.51  	94.5913
3155.38  	94.5812
3158.26  	94.5122
3161.13  	94.4695
3164.01  	94.4207
3166.88  	94.4739
3169.75  	94.4484
3172.63  	94.3961
3175.5  	94.3118
3178.37  	94.2367
3181.25  	94.2637
3184.12  	94.212
3187  	94.1737
3189.87  	94.0336
3192.74  	93.9921
3195.62  	94.0343
3198.49  	93.9403
3201.36  	93.9574
3204.24  	93.829
3207.11  	93.8389
3209.99  	93.8515
3212.86  	93.8071
3215.73  	93.7367
3218.61  	93.6942
3221.48  	93.7669
3224.35  	93.6899
3227.23  	93.7222
3230.1  	93.7249
3232.98  	93.5514
3235.85  	93.5459
3238.72  	93.6102
3241.6  	93.517
3244.47  	93.3838
3247.34  	93.4939
3250.22  	93.5135
3253.09  	93.4771
3255.97  	93.3874
3258.84  	93.3592
3261.71  	93.4706
3264.59  	93.4726
3267.46  	93.4636
3270.33  	93.3927
3273.21  	93.5261
3276.08  	93.2153
3278.96  	93.3164
3281.83  	93.3622
3284.7  	93.3622
3287.58  	93.3649
3290.45  	93.4539
3293.32  	93.4153
3296.2  	93.4531
3299.07  	93.5136
3301.95  	93.3159
3304.82  	93.353
3307.69  	93.44
3310.57  	93.3076
3313.44  	93.4968
3316.31  	93.4535
3319.19  	93.3471
3322.06  	93.375
3324.94  	93.3326
3327.81  	93.3663
3330.68  	93.3776
3333.56  	93.4519
3336.43  	93.3417
3339.3  	93.2886
3342.18  	93.4728
3345.05  	93.4021
3347.93  	93.2434
3350.8  	93.2243
3353.67  	93.1809
3356.55  	93.2576
3359.42  	93.3338
3362.29  	93.3358
3365.17  	93.2661
3368.04  	93.2285
3370.92  	93.2526
3373.79  	93.359
3376.66  	93.2711
3379.54  	93.1978
3382.41  	93.125
3385.28  	93.2639
3388.16  	93.2063
3391.03  	93.2329
3393.91  	93.3616
3396.78  	93.3923
3399.65  	93.2612
3402.53  	93.3754
3405.4  	93.2916
3408.27  	93.2558
3411.15  	93.3294
3414.02  	93.2526
3416.9  	93.3759
3419.77  	93.4933
3422.64  	93.6047
3425.52  	93.6161
3428.39  	93.5311
3431.26  	93.5758
3434.14  	93.6763
3437.01  	93.8175
3439.89  	93.6093
3442.76  	93.7059
3445.63  	93.9901
3448.51  	93.8886
3451.38  	93.8325
3454.25  	94.1623
3457.13  	94.1819
3460  	94.0718
3462.88  	94.1385
3465.75  	94.3679
3468.62  	94.271
3471.5  	94.458
3474.37  	94.2797
3477.24  	94.3924
3480.12  	94.5158
3482.99  	94.552
3485.87  	94.6573
3488.74  	94.6556
3491.61  	94.7634
3494.49  	94.7491
3497.36  	95.1737
3500.23  	95.0498
3503.11  	95.1182
3505.98  	95.258
3508.86  	95.2099
3511.73  	95.2255
3514.6  	95.4028
3517.48  	95.442
3520.35  	95.4551
3523.22  	95.4683
3526.1  	95.5505
3528.97  	95.6167
3531.85  	95.7975
3534.72  	95.8482
3537.59  	95.9076
3540.47  	96.0751
3543.34  	96.0535
3546.21  	96.2072
3549.09  	96.2944
3551.96  	96.1213
3554.84  	96.4239
3557.71  	96.4179
3560.58  	96.6044
3563.46  	96.6494
3566.33  	96.624
3569.2  	96.7806
3572.08  	96.678
3574.95  	96.8854
3577.83  	96.9233
3580.7  	96.9499
3583.57  	97.104
3586.45  	97.0935
3589.32  	97.1548
3592.19  	97.1305
3595.07  	97.1406
3597.94  	97.2058
3600.82  	97.3379
3603.69  	97.4051
3606.56  	97.4442
3609.44  	97.59
3612.31  	97.4561
3615.18  	97.5248
3618.06  	97.5444
3620.93  	97.5039
3623.81  	97.7071
3626.68  	97.7354
3629.55  	97.932
3632.43  	97.6992
3635.3  	97.766
3638.17  	97.8285
3641.05  	97.6722
3643.92  	98.0535
3646.8  	98.0399
3649.67  	98.0187
3652.54  	98.0172
3655.42  	98.0515
3658.29  	98.4769
3661.16  	98.252
3664.04  	98.6487
3666.91  	98.7369
3669.79  	98.827
3672.66  	98.9675
3675.53  	98.6364
3678.41  	98.9243
3681.28  	99.1202
3684.15  	99.4326
3687.03  	99.4452
3689.9  	99.4122
3692.78  	99.3858
3695.65  	99.4455
3698.52  	99.602
3701.4  	99.7013
3704.27  	99.6724
3707.15  	99.819
3710.02  	99.7288
3712.89  	99.6753
3715.77  	99.6829
3718.64  	99.8277
3721.51  	99.9039
3724.39  	99.8622
3727.26  	99.8148
3730.14  	99.889
3733.01  	99.9871
3735.88  	99.5724
3738.76  	99.8631
3741.63  	99.9692
3744.5  	100.036
3747.38  	99.945
3750.25  	99.7628
3753.13  	99.9912
3756  	99.8547
3758.87  	99.9761
3761.75  	99.9919
3764.62  	99.933
3767.49  	100.135
3770.37  	100.008
3773.24  	100.04
3776.12  	100.213
3778.99  	100.238
3781.86  	100.236
3784.74  	100.128
3787.61  	100.192
3790.48  	100.281
3793.36  	100.053
3796.23  	100.382
3799.11  	100.013
3801.98  	100.027
3804.85  	100.091
3807.73  	99.833
3810.6  	100.189
3813.47  	100.058
3816.35  	100.527
3819.22  	99.8428
3822.1  	99.9705
3824.97  	100.098
3827.84  	99.9975
3830.72  	100.125
3833.59  	100.216
3836.46  	100.151
3839.34  	99.8834
3842.21  	99.9859
3845.09  	99.8476
3847.96  	100.199
3850.83  	100.237
3853.71  	100.492
3856.58  	99.7178
3859.45  	100.015
3862.33  	100.235
3865.2  	100.185
3868.08  	100.016
3870.95  	100.314
3873.82  	100.084
3876.7  	100.173
3879.57  	100.345
3882.44  	100.125
3885.32  	100.192
3888.19  	100.24
3891.07  	100.194
3893.94  	100.1
3896.81  	100.204
3899.69  	100.38
3902.56  	100.113
3905.43  	100.155
3908.31  	100.267
3911.18  	100.389
3914.06  	100.403
3916.93  	100.34
3919.8  	100.327
3922.68  	100.33
3925.55  	100.345
3928.42  	100.386
3931.3  	100.31
3934.17  	100.282
3937.05  	100.427
3939.92  	100.32
3942.79  	100.371
3945.67  	100.289
3948.54  	100.287
3951.41  	100.328
3954.29  	100.305
3957.16  	100.318
3960.04  	100.396
3962.91  	100.362
3965.78  	100.275
3968.66  	100.326
3971.53  	100.334
3974.4  	100.365
3977.28  	100.262
3980.15  	100.327
3983.03  	100.314
3985.9  	100.282
3988.77  	100.312
3991.65  	100.248
3994.52  	100.3
3997.39  	100.331
4000.27  	100.372