File: FTIR/ILUM_29-10-2024/SiO2_SH_1.txt
##TITLE=No Description
##DATA TYPE=INFRARED SPECTRUM
##XUNITS=1/CM
##YUNITS=%T
399.452  	37.429
402.326  	38.3416
405.2  	35.9655
408.073  	35.946
410.947  	37.0161
413.821  	35.6486
416.695  	35.082
419.568  	35.4506
422.442  	36.0158
425.316  	36.0855
428.19  	34.3852
431.063  	35.1149
433.937  	35.2953
436.811  	34.6113
439.685  	34.6638
442.558  	35.1648
445.432  	35.0355
448.306  	34.3772
451.18  	34.5945
454.053  	36.0573
456.927  	36.4132
459.801  	36.5815
462.675  	37.8517
465.548  	39.7035
468.422  	41.3491
471.296  	43.3247
474.17  	46.4202
477.043  	49.3609
479.917  	52.4285
482.791  	55.6094
485.665  	59.5978
488.538  	62.727
491.412  	65.6681
494.286  	68.306
497.16  	70.7105
500.034  	71.9995
502.907  	73.3461
505.781  	74.015
508.655  	74.5885
511.529  	75.1706
514.402  	74.9605
517.276  	74.9744
520.15  	74.7995
523.024  	74.87
525.897  	74.5264
528.771  	74.3145
531.645  	73.7325
534.519  	73.0811
537.392  	72.6079
540.266  	72.1348
543.14  	72.0785
546.014  	71.9162
548.887  	71.601
551.761  	71.3416
554.635  	71.2054
557.509  	71.4317
560.382  	71.2041
563.256  	71.4105
566.13  	71.4769
569.004  	71.832
571.877  	72.3909
574.751  	72.4396
577.625  	72.7435
580.499  	73.1333
583.372  	73.6012
586.246  	74.0833
589.12  	74.6597
591.994  	74.9822
594.867  	75.4789
597.741  	75.9419
600.615  	76.357
603.489  	76.8887
606.362  	77.3053
609.236  	77.767
612.11  	78.2165
614.984  	78.5752
617.858  	78.8849
620.731  	79.1501
623.605  	79.4602
626.479  	79.695
629.353  	79.8493
632.226  	79.9344
635.1  	79.8917
637.974  	79.7872
640.848  	79.5861
643.721  	79.2855
646.595  	78.8793
649.469  	78.4311
652.343  	78.2042
655.216  	77.9882
658.09  	77.7425
660.964  	77.3462
663.838  	76.6342
666.711  	75.7629
669.585  	74.6736
672.459  	73.7234
675.333  	72.8088
678.206  	71.7784
681.08  	70.8671
683.954  	69.8877
686.828  	68.9582
689.701  	68.6447
692.575  	68.9935
695.449  	69.8919
698.323  	71.1926
701.196  	72.5334
704.07  	73.5943
706.944  	74.5534
709.818  	75.4526
712.691  	75.8553
715.565  	76.2085
718.439  	76.3465
721.313  	76.3802
724.186  	76.3605
727.06  	75.9528
729.934  	75.6118
732.808  	75.0548
735.681  	74.5011
738.555  	73.9875
741.429  	73.5998
744.303  	73.2228
747.177  	72.9487
750.05  	72.7313
752.924  	72.5255
755.798  	72.4019
758.672  	72.0343
761.545  	71.8004
764.419  	71.3572
767.293  	70.8317
770.167  	70.2293
773.04  	69.4844
775.914  	68.5984
778.788  	67.9668
781.662  	67.3017
784.535  	66.6762
787.409  	66.232
790.283  	65.8618
793.157  	65.5439
796.03  	65.3771
798.904  	65.2701
801.778  	65.3792
804.652  	65.646
807.525  	66.1794
810.399  	67.0009
813.273  	68.2179
816.147  	69.857
819.02  	71.7985
821.894  	74.0895
824.768  	76.5232
827.642  	79.0304
830.515  	81.3077
833.389  	83.2708
836.263  	84.5823
839.137  	85.4093
842.01  	85.9484
844.884  	86.149
847.758  	86.0333
850.632  	85.8037
853.505  	85.3693
856.379  	84.8749
859.253  	84.2391
862.127  	83.7112
865.001  	83.3645
867.874  	83.0785
870.748  	82.8113
873.622  	82.5236
876.496  	82.0853
879.369  	81.755
882.243  	81.3703
885.117  	80.9241
887.991  	80.4864
890.864  	80.0977
893.738  	79.5458
896.612  	78.9964
899.486  	78.4889
902.359  	77.8533
905.233  	77.0703
908.107  	76.2042
910.981  	75.4025
913.854  	74.5258
916.728  	73.6018
919.602  	72.9589
922.476  	72.6435
925.349  	72.5585
928.223  	72.6055
931.097  	72.7511
933.971  	72.8782
936.844  	72.6741
939.718  	72.1694
942.592  	71.5284
945.466  	70.8739
948.339  	70.2284
951.213  	69.5171
954.087  	68.8852
956.961  	68.3575
959.834  	67.8687
962.708  	67.432
965.582  	66.9256
968.456  	66.3341
971.329  	65.3263
974.203  	64.0408
977.077  	62.4835
979.951  	60.9697
982.824  	59.3897
985.698  	57.4846
988.572  	55.1402
991.446  	52.1649
994.32  	48.5269
997.193  	44.8466
1000.07  	41.8014
1002.94  	39.5274
1005.81  	37.684
1008.69  	36.0352
1011.56  	34.3786
1014.44  	32.5029
1017.31  	30.3692
1020.18  	28.2708
1023.06  	26.651
1025.93  	25.4811
1028.8  	24.5668
1031.68  	23.9772
1034.55  	23.9025
1037.43  	24.0714
1040.3  	24.431
1043.17  	24.9766
1046.05  	25.7131
1048.92  	26.4816
1051.79  	27.027
1054.67  	27.6162
1057.54  	28.4306
1060.42  	29.1994
1063.29  	29.8615
1066.16  	30.6876
1069.04  	31.6664
1071.91  	32.531
1074.78  	33.303
1077.66  	34.0858
1080.53  	34.9819
1083.41  	35.6673
1086.28  	36.2354
1089.15  	36.8378
1092.03  	37.5778
1094.9  	38.2351
1097.77  	38.9888
1100.65  	39.993
1103.52  	41.1681
1106.4  	42.3319
1109.27  	43.4176
1112.14  	44.4804
1115.02  	45.5225
1117.89  	46.3502
1120.76  	47.0297
1123.64  	47.855
1126.51  	48.7471
1129.39  	49.5704
1132.26  	50.4407
1135.13  	51.4983
1138.01  	52.5888
1140.88  	53.7014
1143.75  	54.8062
1146.63  	56.0032
1149.5  	57.215
1152.38  	58.274
1155.25  	59.2774
1158.12  	60.2557
1161  	61.1344
1163.87  	62.0225
1166.74  	62.9762
1169.62  	64.0337
1172.49  	65.1133
1175.37  	66.0963
1178.24  	66.8913
1181.11  	67.552
1183.99  	68.2948
1186.86  	69.2189
1189.73  	70.6229
1192.61  	72.4417
1195.48  	74.3977
1198.36  	76.2783
1201.23  	78.0121
1204.1  	79.6508
1206.98  	81.062
1209.85  	82.3868
1212.72  	83.5866
1215.6  	84.6943
1218.47  	85.7397
1221.35  	86.5659
1224.22  	87.2928
1227.09  	87.881
1229.97  	88.1478
1232.84  	88.0614
1235.72  	87.6877
1238.59  	87.4215
1241.46  	87.6134
1244.34  	88.2272
1247.21  	88.9766
1250.08  	89.486
1252.96  	89.7611
1255.83  	89.589
1258.71  	89.2804
1261.58  	89.4804
1264.45  	90.4414
1267.33  	91.9192
1270.2  	93.5222
1273.07  	94.7576
1275.95  	95.5303
1278.82  	96.0728
1281.7  	96.396
1284.57  	96.5812
1287.44  	96.6681
1290.32  	96.7026
1293.19  	96.5897
1296.06  	96.3504
1298.94  	96.0859
1301.81  	95.7671
1304.69  	95.5848
1307.56  	95.5575
1310.43  	95.774
1313.31  	96.278
1316.18  	96.8531
1319.05  	97.2475
1321.93  	97.5028
1324.8  	97.6038
1327.68  	97.6093
1330.55  	97.5539
1333.42  	97.4476
1336.3  	97.0866
1339.17  	96.6592
1342.04  	96.2298
1344.92  	95.9688
1347.79  	96.3386
1350.67  	96.9037
1353.54  	97.3946
1356.41  	97.7264
1359.29  	97.9014
1362.16  	97.8996
1365.03  	97.9021
1367.91  	97.8876
1370.78  	97.9371
1373.66  	97.9499
1376.53  	97.9636
1379.4  	97.948
1382.28  	97.8894
1385.15  	97.7201
1388.02  	97.5543
1390.9  	97.3831
1393.77  	97.1229
1396.65  	96.8573
1399.52  	96.5096
1402.39  	96.1509
1405.27  	95.9431
1408.14  	95.8842
1411.01  	96.0681
1413.89  	96.3765
1416.76  	96.5172
1419.64  	96.5863
1422.51  	96.5249
1425.38  	96.4143
1428.26  	96.32
1431.13  	96.3689
1434  	96.3725
1436.88  	96.3314
1439.75  	95.9868
1442.63  	95.8141
1445.5  	96.044
1448.37  	96.304
1451.25  	96.3692
1454.12  	96.2956
1456.99  	96.6498
1459.87  	97.226
1462.74  	97.5709
1465.62  	97.9024
1468.49  	98.0373
1471.36  	98.0699
1474.24  	98.2018
1477.11  	98.2322
1479.98  	98.2313
1482.86  	98.2746
1485.73  	98.3272
1488.61  	98.2923
1491.48  	98.3922
1494.35  	98.4139
1497.23  	98.4266
1500.1  	98.4481
1502.97  	98.4438
1505.85  	98.4543
1508.72  	98.431
1511.6  	98.4313
1514.47  	98.4429
1517.34  	98.4341
1520.22  	98.4516
1523.09  	98.4353
1525.96  	98.4254
1528.84  	98.4092
1531.71  	98.4207
1534.59  	98.4781
1537.46  	98.4959
1540.33  	98.5079
1543.21  	98.529
1546.08  	98.5406
1548.95  	98.4337
1551.83  	98.4042
1554.7  	98.3954
1557.58  	98.4851
1560.45  	98.5029
1563.32  	98.377
1566.2  	98.3503
1569.07  	98.3591
1571.94  	98.3737
1574.82  	98.4078
1577.69  	98.3979
1580.57  	98.2691
1583.44  	98.2384
1586.31  	98.2499
1589.19  	98.0514
1592.06  	97.7405
1594.93  	97.4473
1597.81  	97.6991
1600.68  	97.7619
1603.56  	97.7738
1606.43  	97.5942
1609.3  	97.4843
1612.18  	97.4124
1615.05  	97.341
1617.92  	97.2651
1620.8  	97.1778
1623.67  	97.2474
1626.55  	97.186
1629.42  	97.1423
1632.29  	97.1696
1635.17  	97.1824
1638.04  	97.2467
1640.91  	97.3548
1643.79  	97.3955
1646.66  	97.3815
1649.54  	97.5185
1652.41  	97.5996
1655.28  	97.6919
1658.16  	97.7239
1661.03  	97.8185
1663.9  	97.9345
1666.78  	97.9019
1669.65  	98.0655
1672.53  	98.0749
1675.4  	98.0894
1678.27  	98.1135
1681.15  	98.1387
1684.02  	98.1305
1686.89  	98.2982
1689.77  	98.3353
1692.64  	98.3957
1695.52  	98.473
1698.39  	98.4486
1701.26  	98.5409
1704.14  	98.4632
1707.01  	98.5185
1709.88  	98.5449
1712.76  	98.5482
1715.63  	98.5439
1718.51  	98.6364
1721.38  	98.6429
1724.25  	98.6245
1727.13  	98.681
1730  	98.611
1732.87  	98.6624
1735.75  	98.7274
1738.62  	98.6882
1741.5  	98.7231
1744.37  	98.6795
1747.24  	98.6351
1750.12  	98.729
1752.99  	98.7145
1755.86  	98.7169
1758.74  	98.6952
1761.61  	98.7124
1764.49  	98.7445
1767.36  	98.7489
1770.23  	98.7642
1773.11  	98.7618
1775.98  	98.7336
1778.85  	98.7443
1781.73  	98.7643
1784.6  	98.7578
1787.48  	98.8507
1790.35  	98.7702
1793.22  	98.7682
1796.1  	98.6532
1798.97  	98.7048
1801.84  	98.7007
1804.72  	98.7237
1807.59  	98.7188
1810.47  	98.6985
1813.34  	98.6577
1816.21  	98.7496
1819.09  	98.752
1821.96  	98.7418
1824.83  	98.7487
1827.71  	98.7236
1830.58  	98.7571
1833.46  	98.8078
1836.33  	98.81
1839.2  	98.7785
1842.08  	98.7638
1844.95  	98.776
1847.83  	98.6659
1850.7  	98.6798
1853.57  	98.6514
1856.45  	98.7308
1859.32  	98.714
1862.19  	98.6899
1865.07  	98.6992
1867.94  	98.7422
1870.82  	98.6819
1873.69  	98.7529
1876.56  	98.7072
1879.44  	98.7128
1882.31  	98.7833
1885.18  	98.911
1888.06  	98.8434
1890.93  	98.8781
1893.81  	98.8189
1896.68  	98.9566
1899.55  	98.8949
1902.43  	98.8996
1905.3  	98.8712
1908.17  	98.852
1911.05  	98.925
1913.92  	99.13
1916.8  	99.0775
1919.67  	99.0694
1922.54  	99.1096
1925.42  	99.2368
1928.29  	99.1326
1931.16  	99.097
1934.04  	99.2649
1936.91  	99.0966
1939.79  	99.1057
1942.66  	99.1474
1945.53  	99.3612
1948.41  	99.3483
1951.28  	99.3305
1954.15  	99.4485
1957.03  	99.4788
1959.9  	99.4235
1962.78  	99.603
1965.65  	99.5156
1968.52  	100.09
1971.4  	99.6809
1974.27  	99.5166
1977.14  	99.8298
1980.02  	99.8129
1982.89  	99.7887
1985.77  	100.002
1988.64  	99.569
1991.51  	99.5674
1994.39  	99.6756
1997.26  	99.5113
2000.13  	100.077
2003.01  	99.8202
2005.88  	99.8775
2008.76  	99.9133
2011.63  	99.7816
2014.5  	99.7916
2017.38  	100.125
2020.25  	100.142
2023.12  	100.465
2026  	100.239
2028.87  	99.9763
2031.75  	100.166
2034.62  	99.758
2037.49  	99.7999
2040.37  	99.5451
2043.24  	99.4823
2046.11  	99.6437
2048.99  	99.7496
2051.86  	99.6419
2054.74  	99.3534
2057.61  	99.6667
2060.48  	99.4131
2063.36  	99.6004
2066.23  	99.4667
2069.1  	99.3717
2071.98  	99.6365
2074.85  	99.4642
2077.73  	99.6044
2080.6  	99.5215
2083.47  	99.6997
2086.35  	99.3256
2089.22  	99.5795
2092.09  	99.7004
2094.97  	99.6002
2097.84  	99.374
2100.72  	99.3998
2103.59  	99.7809
2106.46  	99.3684
2109.34  	99.4297
2112.21  	99.4468
2115.08  	99.5218
2117.96  	99.6072
2120.83  	99.5265
2123.71  	99.4174
2126.58  	99.7232
2129.45  	99.7159
2132.33  	99.8351
2135.2  	99.8694
2138.07  	99.7433
2140.95  	99.8376
2143.82  	99.7104
2146.7  	100.044
2149.57  	100.281
2152.44  	100.012
2155.32  	99.8934
2158.19  	100.072
2161.06  	99.6201
2163.94  	99.5584
2166.81  	99.7478
2169.69  	99.366
2172.56  	99.4199
2175.43  	99.2736
2178.31  	99.3613
2181.18  	99.3354
2184.05  	99.6042
2186.93  	99.2737
2189.8  	99.5011
2192.68  	99.3158
2195.55  	99.2913
2198.42  	99.1731
2201.3  	99.4887
2204.17  	99.4322
2207.04  	99.5
2209.92  	99.3967
2212.79  	99.1887
2215.67  	99.5879
2218.54  	99.2433
2221.41  	99.3784
2224.29  	99.319
2227.16  	99.1229
2230.03  	99.4112
2232.91  	99.3198
2235.78  	99.4486
2238.66  	99.2086
2241.53  	99.2147
2244.4  	99.2086
2247.28  	99.3465
2250.15  	99.1808
2253.02  	99.3103
2255.9  	99.2326
2258.77  	99.1474
2261.65  	99.4423
2264.52  	99.3444
2267.39  	99.3141
2270.27  	99.2442
2273.14  	99.1855
2276.01  	99.2276
2278.89  	99.2939
2281.76  	99.2905
2284.64  	99.1378
2287.51  	99.0606
2290.38  	99.1443
2293.26  	99.2101
2296.13  	99.2633
2299  	99.1422
2301.88  	99.1711
2304.75  	99.1044
2307.63  	99.0519
2310.5  	98.9384
2313.37  	98.9793
2316.25  	98.8351
2319.12  	98.8306
2321.99  	98.8069
2324.87  	98.7618
2327.74  	98.9999
2330.62  	99.0525
2333.49  	99.1409
2336.36  	99.2033
2339.24  	99.0865
2342.11  	99.1251
2344.98  	98.9683
2347.86  	98.9467
2350.73  	98.8925
2353.61  	98.979
2356.48  	99.0098
2359.35  	98.9934
2362.23  	99.0369
2365.1  	98.955
2367.97  	99.0399
2370.85  	99.1101
2373.72  	99.1404
2376.6  	99.0856
2379.47  	99.1015
2382.34  	99.1884
2385.22  	99.1661
2388.09  	99.2515
2390.96  	99.2263
2393.84  	99.1387
2396.71  	99.1457
2399.59  	99.1552
2402.46  	99.2017
2405.33  	99.0778
2408.21  	99.1385
2411.08  	99.2551
2413.95  	99.2603
2416.83  	99.2712
2419.7  	99.2632
2422.58  	99.2905
2425.45  	99.3455
2428.32  	99.1612
2431.2  	99.1912
2434.07  	99.0694
2436.94  	99.1468
2439.82  	99.0957
2442.69  	99.1604
2445.57  	99.0359
2448.44  	99.1037
2451.31  	99.1667
2454.19  	99.1745
2457.06  	99.1792
2459.93  	99.1679
2462.81  	99.1781
2465.68  	99.1195
2468.56  	99.1149
2471.43  	99.0754
2474.3  	99.0592
2477.18  	99.1184
2480.05  	99.1376
2482.93  	99.0653
2485.8  	99.1124
2488.67  	99.075
2491.55  	99.0232
2494.42  	99.0087
2497.29  	98.9698
2500.17  	98.9807
2503.04  	99.0031
2505.92  	99.0434
2508.79  	99.0198
2511.66  	98.882
2514.54  	98.8829
2517.41  	98.8651
2520.28  	98.7895
2523.16  	98.76
2526.03  	98.6871
2528.91  	98.6585
2531.78  	98.7424
2534.65  	98.6309
2537.53  	98.6695
2540.4  	98.5943
2543.27  	98.4052
2546.15  	98.4424
2549.02  	98.3392
2551.9  	98.3697
2554.77  	98.3458
2557.64  	98.2611
2560.52  	98.365
2563.39  	98.3898
2566.26  	98.465
2569.14  	98.4492
2572.01  	98.4672
2574.89  	98.6607
2577.76  	98.6205
2580.63  	98.727
2583.51  	98.7093
2586.38  	98.8369
2589.25  	98.7799
2592.13  	98.7902
2595  	98.8096
2597.88  	98.8207
2600.75  	98.8795
2603.62  	98.8894
2606.5  	98.8621
2609.37  	98.8241
2612.24  	98.8249
2615.12  	98.8504
2617.99  	98.8092
2620.87  	98.8811
2623.74  	98.8021
2626.61  	98.8605
2629.49  	98.8245
2632.36  	98.8675
2635.23  	98.8109
2638.11  	98.8028
2640.98  	98.8264
2643.86  	98.7854
2646.73  	98.8073
2649.6  	98.7734
2652.48  	98.8662
2655.35  	98.8283
2658.22  	98.8432
2661.1  	98.8347
2663.97  	98.856
2666.85  	98.8534
2669.72  	98.869
2672.59  	98.8547
2675.47  	98.8204
2678.34  	98.821
2681.21  	98.8208
2684.09  	98.8494
2686.96  	98.8565
2689.84  	98.8377
2692.71  	98.8854
2695.58  	98.8655
2698.46  	98.8747
2701.33  	98.8509
2704.2  	98.8459
2707.08  	98.869
2709.95  	98.7846
2712.83  	98.8202
2715.7  	98.8033
2718.57  	98.8356
2721.45  	98.8659
2724.32  	98.7937
2727.19  	98.755
2730.07  	98.787
2732.94  	98.815
2735.82  	98.7767
2738.69  	98.7569
2741.56  	98.7121
2744.44  	98.741
2747.31  	98.7194
2750.18  	98.717
2753.06  	98.7249
2755.93  	98.703
2758.81  	98.6766
2761.68  	98.6905
2764.55  	98.6627
2767.43  	98.6149
2770.3  	98.6162
2773.17  	98.5911
2776.05  	98.6177
2778.92  	98.5636
2781.8  	98.537
2784.67  	98.5248
2787.54  	98.4647
2790.42  	98.4349
2793.29  	98.4335
2796.16  	98.3831
2799.04  	98.3377
2801.91  	98.3862
2804.79  	98.3596
2807.66  	98.3356
2810.53  	98.3723
2813.41  	98.3369
2816.28  	98.3332
2819.15  	98.3263
2822.03  	98.3436
2824.9  	98.2285
2827.78  	98.1246
2830.65  	98.0359
2833.52  	97.9478
2836.4  	97.797
2839.27  	97.6809
2842.14  	97.5204
2845.02  	97.3438
2847.89  	97.2023
2850.77  	97.1192
2853.64  	96.9314
2856.51  	96.8566
2859.39  	96.7365
2862.26  	96.6929
2865.13  	96.6719
2868.01  	96.7156
2870.88  	96.7756
2873.76  	96.7871
2876.63  	96.7333
2879.5  	96.5955
2882.38  	96.3565
2885.25  	96.0982
2888.12  	95.9981
2891  	96.0033
2893.87  	96.0196
2896.75  	96.0771
2899.62  	96.1618
2902.49  	96.101
2905.37  	95.9126
2908.24  	95.6257
2911.11  	95.3228
2913.99  	95.0352
2916.86  	94.6929
2919.74  	94.4513
2922.61  	94.1692
2925.48  	93.8448
2928.36  	93.5788
2931.23  	93.4345
2934.1  	93.5548
2936.98  	93.89
2939.85  	94.4725
2942.73  	94.9751
2945.6  	95.5554
2948.47  	95.8609
2951.35  	96.0467
2954.22  	95.9373
2957.09  	96.027
2959.97  	96.0683
2962.84  	96.1427
2965.72  	96.2863
2968.59  	96.4249
2971.46  	96.5423
2974.34  	96.5393
2977.21  	96.7233
2980.08  	96.8861
2982.96  	97.0444
2985.83  	97.1699
2988.71  	97.3209
2991.58  	97.4567
2994.45  	97.5076
2997.33  	97.467
3000.2  	97.5731
3003.07  	97.6065
3005.95  	97.615
3008.82  	97.6101
3011.7  	97.7123
3014.57  	97.5941
3017.44  	97.6372
3020.32  	97.6087
3023.19  	97.6265
3026.06  	97.6459
3028.94  	97.6124
3031.81  	97.5619
3034.69  	97.4853
3037.56  	97.5627
3040.43  	97.6087
3043.31  	97.5834
3046.18  	97.5465
3049.05  	97.5332
3051.93  	97.4987
3054.8  	97.4805
3057.68  	97.479
3060.55  	97.4647
3063.42  	97.4746
3066.3  	97.3224
3069.17  	97.3378
3072.04  	97.3667
3074.92  	97.3589
3077.79  	97.3819
3080.67  	97.3006
3083.54  	97.2935
3086.41  	97.2958
3089.29  	97.2072
3092.16  	97.2203
3095.04  	97.174
3097.91  	97.2049
3100.78  	97.1864
3103.66  	97.1943
3106.53  	97.1469
3109.4  	97.0961
3112.28  	97.1251
3115.15  	97.0111
3118.03  	97.0411
3120.9  	96.975
3123.77  	96.9343
3126.65  	96.9176
3129.52  	97.0092
3132.39  	96.8703
3135.27  	96.8084
3138.14  	96.9047
3141.02  	96.9072
3143.89  	96.8379
3146.76  	96.8378
3149.64  	96.793
3152.51  	96.73
3155.38  	96.7741
3158.26  	96.7943
3161.13  	96.7271
3164.01  	96.6481
3166.88  	96.6197
3169.75  	96.668
3172.63  	96.5426
3175.5  	96.5212
3178.37  	96.5028
3181.25  	96.4519
3184.12  	96.518
3187  	96.4311
3189.87  	96.3172
3192.74  	96.3454
3195.62  	96.3111
3198.49  	96.2496
3201.36  	96.2502
3204.24  	96.1982
3207.11  	96.2262
3209.99  	96.2839
3212.86  	96.1948
3215.73  	96.1494
3218.61  	96.1622
3221.48  	96.101
3224.35  	96.1154
3227.23  	96.1316
3230.1  	96.0027
3232.98  	95.9471
3235.85  	95.9068
3238.72  	95.9774
3241.6  	95.9519
3244.47  	95.8118
3247.34  	95.9282
3250.22  	95.9423
3253.09  	95.9569
3255.97  	95.8534
3258.84  	95.8915
3261.71  	95.988
3264.59  	95.9171
3267.46  	95.872
3270.33  	95.8069
3273.21  	95.8735
3276.08  	95.77
3278.96  	95.6057
3281.83  	95.6787
3284.7  	95.7745
3287.58  	95.8525
3290.45  	95.7314
3293.32  	95.7191
3296.2  	95.7021
3299.07  	95.6493
3301.95  	95.5834
3304.82  	95.5399
3307.69  	95.5484
3310.57  	95.6843
3313.44  	95.5623
3316.31  	95.5708
3319.19  	95.5588
3322.06  	95.5161
3324.94  	95.4739
3327.81  	95.4476
3330.68  	95.4239
3333.56  	95.4226
3336.43  	95.4596
3339.3  	95.3302
3342.18  	95.3112
3345.05  	95.2327
3347.93  	95.247
3350.8  	95.4175
3353.67  	95.2542
3356.55  	95.3413
3359.42  	95.2891
3362.29  	95.1649
3365.17  	95.3071
3368.04  	95.1961
3370.92  	95.1632
3373.79  	95.0737
3376.66  	95.1897
3379.54  	95.0003
3382.41  	95.0651
3385.28  	95.2929
3388.16  	94.9876
3391.03  	95.0997
3393.91  	95.1184
3396.78  	95.0524
3399.65  	95.0527
3402.53  	95.1481
3405.4  	94.9663
3408.27  	95.1608
3411.15  	95.0525
3414.02  	95.0743
3416.9  	94.9796
3419.77  	95.1985
3422.64  	95.0839
3425.52  	95.1381
3428.39  	95.1433
3431.26  	95.0853
3434.14  	95.0183
3437.01  	95.0586
3439.89  	94.9992
3442.76  	95.0827
3445.63  	95.1505
3448.51  	95.1559
3451.38  	95.2386
3454.25  	95.2335
3457.13  	95.3
3460  	95.311
3462.88  	95.1927
3465.75  	95.2124
3468.62  	95.2677
3471.5  	95.3181
3474.37  	95.3568
3477.24  	95.5381
3480.12  	95.4437
3482.99  	95.3683
3485.87  	95.4705
3488.74  	95.5124
3491.61  	95.5979
3494.49  	95.4916
3497.36  	95.5508
3500.23  	95.7198
3503.11  	95.5823
3505.98  	95.6814
3508.86  	95.8146
3511.73  	95.852
3514.6  	95.7091
3517.48  	96.0176
3520.35  	96.0651
3523.22  	95.9834
3526.1  	96.1471
3528.97  	96.0441
3531.85  	96.141
3534.72  	96.2354
3537.59  	96.2402
3540.47  	96.4072
3543.34  	96.2416
3546.21  	96.3976
3549.09  	96.3618
3551.96  	96.3844
3554.84  	96.442
3557.71  	96.5501
3560.58  	96.5487
3563.46  	96.5393
3566.33  	96.5296
3569.2  	96.7512
3572.08  	96.8014
3574.95  	96.7636
3577.83  	96.8639
3580.7  	96.9726
3583.57  	96.9353
3586.45  	96.9064
3589.32  	97.0798
3592.19  	96.9569
3595.07  	96.8216
3597.94  	96.9792
3600.82  	97.0246
3603.69  	97.0035
3606.56  	97.1113
3609.44  	97.315
3612.31  	97.2614
3615.18  	97.1429
3618.06  	97.1411
3620.93  	97.2025
3623.81  	97.3724
3626.68  	97.2522
3629.55  	97.0701
3632.43  	97.2963
3635.3  	97.4426
3638.17  	97.6631
3641.05  	97.5803
3643.92  	97.6503
3646.8  	97.531
3649.67  	97.78
3652.54  	97.7928
3655.42  	97.697
3658.29  	97.8019
3661.16  	97.9665
3664.04  	98.0919
3666.91  	98.1826
3669.79  	98.0977
3672.66  	98.3824
3675.53  	98.3506
3678.41  	98.2669
3681.28  	98.3428
3684.15  	98.3909
3687.03  	98.4897
3689.9  	98.5396
3692.78  	98.5399
3695.65  	98.6388
3698.52  	98.6396
3701.4  	98.6702
3704.27  	98.7928
3707.15  	98.7457
3710.02  	98.6984
3712.89  	98.7364
3715.77  	98.7367
3718.64  	98.6952
3721.51  	98.78
3724.39  	98.8224
3727.26  	98.7078
3730.14  	98.7955
3733.01  	98.7217
3735.88  	98.6278
3738.76  	98.8276
3741.63  	98.7368
3744.5  	98.7877
3747.38  	98.6796
3750.25  	98.6253
3753.13  	98.6969
3756  	98.8013
3758.87  	98.796
3761.75  	98.8841
3764.62  	98.8161
3767.49  	98.7451
3770.37  	98.7921
3773.24  	98.8272
3776.12  	98.8585
3778.99  	98.825
3781.86  	98.8806
3784.74  	98.7724
3787.61  	98.8569
3790.48  	98.8763
3793.36  	98.9232
3796.23  	98.9361
3799.11  	98.7636
3801.98  	98.8191
3804.85  	98.9434
3807.73  	98.8833
3810.6  	98.8436
3813.47  	98.8789
3816.35  	98.9887
3819.22  	98.842
3822.1  	98.808
3824.97  	98.9203
3827.84  	98.8087
3830.72  	98.8764
3833.59  	98.8733
3836.46  	98.7383
3839.34  	98.7769
3842.21  	98.9088
3845.09  	98.855
3847.96  	98.7988
3850.83  	98.83
3853.71  	98.9672
3856.58  	98.9187
3859.45  	98.8507
3862.33  	98.7229
3865.2  	98.7965
3868.08  	98.7596
3870.95  	98.9702
3873.82  	98.8101
3876.7  	98.7761
3879.57  	98.7183
3882.44  	98.6481
3885.32  	98.7311
3888.19  	98.8202
3891.07  	98.9119
3893.94  	98.7639
3896.81  	98.8537
3899.69  	98.7071
3902.56  	98.6701
3905.43  	98.8827
3908.31  	98.9006
3911.18  	98.9123
3914.06  	98.8246
3916.93  	98.7708
3919.8  	98.8779
3922.68  	98.8643
3925.55  	98.864
3928.42  	98.8613
3931.3  	98.7595
3934.17  	98.8767
3937.05  	98.8716
3939.92  	98.908
3942.79  	98.8469
3945.67  	98.8756
3948.54  	98.8203
3951.41  	98.885
3954.29  	98.9582
3957.16  	98.8054
3960.04  	98.8057
3962.91  	98.832
3965.78  	98.7675
3968.66  	98.8657
3971.53  	99.0223
3974.4  	98.9003
3977.28  	98.8514
3980.15  	98.7724
3983.03  	98.8348
3985.9  	98.9086
3988.77  	98.8724
3991.65  	98.8438
3994.52  	98.8746
3997.39  	98.8215
4000.27  	98.8908