File: FTIR/LNB_28-10-2024/HCS-MoS2.csv
Criado como novo conjunto de dados;Amostra 021 por Analyst data segunda-feira, outubro 28 2024
cm-1;%T
4000,00;100,67
3997,00;100,67
3994,00;100,67
3991,00;100,67
3988,00;100,68
3985,00;100,67
3982,00;100,68
3979,00;100,68
3976,00;100,68
3973,00;100,68
3970,00;100,68
3967,00;100,68
3964,00;100,68
3961,00;100,69
3958,00;100,69
3955,00;100,69
3952,00;100,69
3949,00;100,70
3946,00;100,70
3943,00;100,70
3940,00;100,71
3937,00;100,70
3934,00;100,70
3931,00;100,72
3928,00;100,72
3925,00;100,72
3922,00;100,72
3919,00;100,72
3916,00;100,74
3913,00;100,74
3910,00;100,73
3907,00;100,73
3904,00;100,74
3901,00;100,78
3898,00;100,78
3895,00;100,76
3892,00;100,76
3889,00;100,75
3886,00;100,77
3883,00;100,78
3880,00;100,80
3877,00;100,79
3874,00;100,78
3871,00;100,79
3868,00;100,80
3865,00;100,81
3862,00;100,82
3859,00;100,80
3856,00;100,81
3853,00;100,80
3850,00;100,85
3847,00;100,81
3844,00;100,80
3841,00;100,81
3838,00;100,83
3835,00;100,85
3832,00;100,85
3829,00;100,82
3826,00;100,82
3823,00;100,83
3820,00;100,84
3817,00;100,85
3814,00;100,83
3811,00;100,83
3808,00;100,82
3805,00;100,82
3802,00;100,85
3799,00;100,85
3796,00;100,87
3793,00;100,85
3790,00;100,83
3787,00;100,82
3784,00;100,83
3781,00;100,84
3778,00;100,84
3775,00;100,84
3772,00;100,83
3769,00;100,84
3766,00;100,86
3763,00;100,84
3760,00;100,84
3757,00;100,86
3754,00;100,86
3751,00;100,85
3748,00;100,88
3745,00;100,90
3742,00;100,88
3739,00;100,86
3736,00;100,85
3733,00;100,92
3730,00;100,87
3727,00;100,85
3724,00;100,86
3721,00;100,87
3718,00;100,86
3715,00;100,83
3712,00;100,82
3709,00;100,86
3706,00;100,82
3703,00;100,80
3700,00;100,79
3697,00;100,77
3694,00;100,76
3691,00;100,76
3688,00;100,76
3685,00;100,72
3682,00;100,67
3679,00;100,63
3676,00;100,61
3673,00;100,55
3670,00;100,48
3667,00;100,37
3664,00;100,25
3661,00;100,13
3658,00;100,03
3655,00;99,92
3652,00;99,86
3649,00;99,73
3646,00;99,64
3643,00;99,52
3640,00;99,41
3637,00;99,32
3634,00;99,25
3631,00;99,22
3628,00;99,13
3625,00;99,06
3622,00;99,02
3619,00;98,97
3616,00;98,92
3613,00;98,88
3610,00;98,84
3607,00;98,77
3604,00;98,72
3601,00;98,67
3598,00;98,63
3595,00;98,60
3592,00;98,55
3589,00;98,52
3586,00;98,46
3583,00;98,41
3580,00;98,37
3577,00;98,32
3574,00;98,27
3571,00;98,22
3568,00;98,18
3565,00;98,11
3562,00;98,05
3559,00;97,99
3556,00;97,93
3553,00;97,88
3550,00;97,82
3547,00;97,77
3544,00;97,70
3541,00;97,65
3538,00;97,60
3535,00;97,53
3532,00;97,49
3529,00;97,45
3526,00;97,39
3523,00;97,32
3520,00;97,28
3517,00;97,23
3514,00;97,17
3511,00;97,12
3508,00;97,07
3505,00;97,03
3502,00;96,97
3499,00;96,92
3496,00;96,87
3493,00;96,83
3490,00;96,78
3487,00;96,72
3484,00;96,67
3481,00;96,62
3478,00;96,57
3475,00;96,52
3472,00;96,46
3469,00;96,40
3466,00;96,34
3463,00;96,29
3460,00;96,23
3457,00;96,17
3454,00;96,12
3451,00;96,06
3448,00;96,00
3445,00;95,93
3442,00;95,88
3439,00;95,82
3436,00;95,77
3433,00;95,72
3430,00;95,67
3427,00;95,62
3424,00;95,59
3421,00;95,55
3418,00;95,51
3415,00;95,48
3412,00;95,46
3409,00;95,43
3406,00;95,40
3403,00;95,39
3400,00;95,38
3397,00;95,35
3394,00;95,33
3391,00;95,32
3388,00;95,29
3385,00;95,27
3382,00;95,27
3379,00;95,27
3376,00;95,26
3373,00;95,26
3370,00;95,28
3367,00;95,28
3364,00;95,26
3361,00;95,27
3358,00;95,27
3355,00;95,28
3352,00;95,32
3349,00;95,32
3346,00;95,32
3343,00;95,36
3340,00;95,38
3337,00;95,40
3334,00;95,38
3331,00;95,40
3328,00;95,44
3325,00;95,48
3322,00;95,48
3319,00;95,48
3316,00;95,49
3313,00;95,53
3310,00;95,59
3307,00;95,65
3304,00;95,64
3301,00;95,61
3298,00;95,64
3295,00;95,68
3292,00;95,70
3289,00;95,66
3286,00;95,65
3283,00;95,66
3280,00;95,66
3277,00;95,69
3274,00;95,74
3271,00;95,78
3268,00;95,73
3265,00;95,70
3262,00;95,70
3259,00;95,72
3256,00;95,76
3253,00;95,74
3250,00;95,75
3247,00;95,80
3244,00;95,77
3241,00;95,75
3238,00;95,76
3235,00;95,83
3232,00;95,84
3229,00;95,79
3226,00;95,78
3223,00;95,79
3220,00;95,81
3217,00;95,83
3214,00;95,84
3211,00;95,84
3208,00;95,87
3205,00;95,90
3202,00;95,91
3199,00;95,92
3196,00;95,95
3193,00;95,99
3190,00;96,02
3187,00;96,04
3184,00;96,07
3181,00;96,10
3178,00;96,12
3175,00;96,15
3172,00;96,19
3169,00;96,21
3166,00;96,24
3163,00;96,26
3160,00;96,30
3157,00;96,35
3154,00;96,45
3151,00;96,48
3148,00;96,43
3145,00;96,44
3142,00;96,50
3139,00;96,58
3136,00;96,55
3133,00;96,55
3130,00;96,61
3127,00;96,60
3124,00;96,64
3121,00;96,76
3118,00;96,83
3115,00;96,82
3112,00;96,78
3109,00;96,83
3106,00;96,82
3103,00;96,84
3100,00;96,91
3097,00;96,90
3094,00;96,92
3091,00;97,01
3088,00;97,06
3085,00;97,11
3082,00;97,16
3079,00;97,20
3076,00;97,18
3073,00;97,17
3070,00;97,22
3067,00;97,30
3064,00;97,30
3061,00;97,31
3058,00;97,37
3055,00;97,44
3052,00;97,50
3049,00;97,54
3046,00;97,60
3043,00;97,67
3040,00;97,69
3037,00;97,71
3034,00;97,79
3031,00;97,79
3028,00;97,80
3025,00;97,85
3022,00;97,90
3019,00;97,96
3016,00;98,03
3013,00;98,08
3010,00;98,07
3007,00;98,04
3004,00;98,06
3001,00;98,09
2998,00;98,14
2995,00;98,16
2992,00;98,18
2989,00;98,15
2986,00;98,15
2983,00;98,18
2980,00;98,22
2977,00;98,20
2974,00;98,18
2971,00;98,14
2968,00;98,12
2965,00;98,13
2962,00;98,14
2959,00;98,14
2956,00;98,16
2953,00;98,22
2950,00;98,24
2947,00;98,28
2944,00;98,30
2941,00;98,27
2938,00;98,25
2935,00;98,25
2932,00;98,28
2929,00;98,30
2926,00;98,27
2923,00;98,28
2920,00;98,34
2917,00;98,42
2914,00;98,47
2911,00;98,47
2908,00;98,46
2905,00;98,49
2902,00;98,50
2899,00;98,52
2896,00;98,56
2893,00;98,56
2890,00;98,56
2887,00;98,57
2884,00;98,58
2881,00;98,60
2878,00;98,62
2875,00;98,67
2872,00;98,69
2869,00;98,66
2866,00;98,68
2863,00;98,70
2860,00;98,73
2857,00;98,73
2854,00;98,72
2851,00;98,75
2848,00;98,80
2845,00;98,81
2842,00;98,84
2839,00;98,90
2836,00;98,91
2833,00;98,91
2830,00;98,91
2827,00;98,93
2824,00;98,95
2821,00;98,97
2818,00;98,98
2815,00;98,99
2812,00;99,01
2809,00;99,04
2806,00;99,03
2803,00;99,04
2800,00;99,08
2797,00;99,10
2794,00;99,10
2791,00;99,13
2788,00;99,14
2785,00;99,12
2782,00;99,13
2779,00;99,14
2776,00;99,17
2773,00;99,18
2770,00;99,17
2767,00;99,17
2764,00;99,18
2761,00;99,19
2758,00;99,20
2755,00;99,21
2752,00;99,23
2749,00;99,26
2746,00;99,26
2743,00;99,25
2740,00;99,26
2737,00;99,27
2734,00;99,28
2731,00;99,29
2728,00;99,31
2725,00;99,33
2722,00;99,33
2719,00;99,33
2716,00;99,35
2713,00;99,36
2710,00;99,37
2707,00;99,38
2704,00;99,38
2701,00;99,39
2698,00;99,41
2695,00;99,41
2692,00;99,43
2689,00;99,44
2686,00;99,45
2683,00;99,46
2680,00;99,48
2677,00;99,49
2674,00;99,49
2671,00;99,49
2668,00;99,49
2665,00;99,49
2662,00;99,46
2659,00;99,44
2656,00;99,44
2653,00;99,44
2650,00;99,45
2647,00;99,46
2644,00;99,48
2641,00;99,50
2638,00;99,52
2635,00;99,53
2632,00;99,55
2629,00;99,57
2626,00;99,58
2623,00;99,59
2620,00;99,61
2617,00;99,63
2614,00;99,65
2611,00;99,66
2608,00;99,68
2605,00;99,70
2602,00;99,72
2599,00;99,73
2596,00;99,75
2593,00;99,77
2590,00;99,78
2587,00;99,80
2584,00;99,82
2581,00;99,84
2578,00;99,85
2575,00;99,88
2572,00;99,89
2569,00;99,90
2566,00;99,92
2563,00;99,93
2560,00;99,95
2557,00;99,97
2554,00;99,98
2551,00;100,00
2548,00;100,01
2545,00;100,03
2542,00;100,05
2539,00;100,06
2536,00;100,08
2533,00;100,09
2530,00;100,11
2527,00;100,13
2524,00;100,14
2521,00;100,16
2518,00;100,16
2515,00;100,17
2512,00;100,18
2509,00;100,20
2506,00;100,21
2503,00;100,21
2500,00;100,23
2497,00;100,24
2494,00;100,25
2491,00;100,27
2488,00;100,28
2485,00;100,30
2482,00;100,31
2479,00;100,32
2476,00;100,34
2473,00;100,35
2470,00;100,36
2467,00;100,36
2464,00;100,38
2461,00;100,38
2458,00;100,37
2455,00;100,37
2452,00;100,38
2449,00;100,41
2446,00;100,43
2443,00;100,44
2440,00;100,46
2437,00;100,48
2434,00;100,48
2431,00;100,51
2428,00;100,53
2425,00;100,55
2422,00;100,57
2419,00;100,57
2416,00;100,58
2413,00;100,59
2410,00;100,59
2407,00;100,63
2404,00;100,66
2401,00;100,66
2398,00;100,67
2395,00;100,68
2392,00;100,68
2389,00;100,69
2386,00;100,70
2383,00;100,71
2380,00;100,71
2377,00;100,72
2374,00;100,72
2371,00;100,71
2368,00;100,72
2365,00;100,72
2362,00;100,69
2359,00;100,70
2356,00;100,74
2353,00;100,77
2350,00;100,69
2347,00;100,60
2344,00;100,61
2341,00;100,65
2338,00;100,66
2335,00;100,68
2332,00;100,71
2329,00;100,72
2326,00;100,53
2323,00;100,35
2320,00;100,51
2317,00;100,58
2314,00;100,62
2311,00;100,65
2308,00;100,66
2305,00;100,65
2302,00;100,65
2299,00;100,63
2296,00;100,61
2293,00;100,58
2290,00;100,54
2287,00;100,51
2284,00;100,52
2281,00;100,58
2278,00;100,63
2275,00;100,66
2272,00;100,69
2269,00;100,72
2266,00;100,75
2263,00;100,79
2260,00;100,77
2257,00;100,75
2254,00;100,82
2251,00;100,85
2248,00;100,83
2245,00;100,82
2242,00;100,80
2239,00;100,79
2236,00;100,78
2233,00;100,77
2230,00;100,77
2227,00;100,74
2224,00;100,76
2221,00;100,78
2218,00;100,80
2215,00;100,80
2212,00;100,81
2209,00;100,81
2206,00;100,81
2203,00;100,83
2200,00;100,82
2197,00;100,84
2194,00;100,84
2191,00;100,81
2188,00;100,81
2185,00;100,82
2182,00;100,92
2179,00;101,01
2176,00;101,02
2173,00;101,10
2170,00;100,95
2167,00;100,74
2164,00;100,68
2161,00;100,73
2158,00;101,61
2155,00;101,80
2152,00;101,57
2149,00;101,47
2146,00;101,46
2143,00;101,43
2140,00;101,39
2137,00;101,41
2134,00;101,53
2131,00;101,49
2128,00;101,34
2125,00;101,23
2122,00;101,16
2119,00;101,10
2116,00;101,00
2113,00;100,95
2110,00;100,96
2107,00;100,96
2104,00;100,96
2101,00;100,98
2098,00;100,99
2095,00;101,08
2092,00;101,10
2089,00;101,01
2086,00;100,96
2083,00;100,94
2080,00;100,91
2077,00;100,92
2074,00;100,94
2071,00;100,96
2068,00;100,99
2065,00;101,01
2062,00;101,01
2059,00;101,01
2056,00;100,97
2053,00;100,89
2050,00;100,68
2047,00;100,95
2044,00;101,04
2041,00;101,04
2038,00;101,03
2035,00;101,12
2032,00;101,27
2029,00;101,31
2026,00;101,30
2023,00;101,30
2020,00;101,33
2017,00;101,35
2014,00;101,36
2011,00;101,30
2008,00;101,33
2005,00;101,51
2002,00;101,40
1999,00;101,27
1996,00;101,22
1993,00;101,22
1990,00;101,18
1987,00;101,13
1984,00;101,05
1981,00;100,87
1978,00;101,03
1975,00;101,44
1972,00;101,47
1969,00;101,44
1966,00;101,42
1963,00;101,40
1960,00;101,46
1957,00;101,48
1954,00;101,38
1951,00;101,34
1948,00;101,31
1945,00;101,28
1942,00;101,32
1939,00;101,29
1936,00;101,26
1933,00;101,26
1930,00;101,25
1927,00;101,24
1924,00;101,19
1921,00;101,16
1918,00;101,15
1915,00;101,17
1912,00;101,11
1909,00;101,11
1906,00;101,12
1903,00;101,10
1900,00;101,11
1897,00;101,08
1894,00;101,09
1891,00;101,05
1888,00;101,10
1885,00;101,08
1882,00;101,07
1879,00;101,05
1876,00;101,05
1873,00;101,02
1870,00;100,96
1867,00;101,07
1864,00;101,03
1861,00;101,01
1858,00;101,02
1855,00;101,00
1852,00;100,98
1849,00;100,95
1846,00;100,88
1843,00;101,04
1840,00;100,96
1837,00;100,93
1834,00;100,90
1831,00;100,82
1828,00;100,91
1825,00;100,87
1822,00;100,86
1819,00;100,84
1816,00;100,88
1813,00;100,78
1810,00;100,76
1807,00;100,71
1804,00;100,63
1801,00;100,61
1798,00;100,60
1795,00;100,45
1792,00;100,48
1789,00;100,48
1786,00;100,32
1783,00;100,24
1780,00;100,15
1777,00;100,04
1774,00;99,80
1771,00;99,83
1768,00;99,69
1765,00;99,50
1762,00;99,35
1759,00;99,22
1756,00;99,09
1753,00;98,83
1750,00;98,73
1747,00;98,58
1744,00;98,34
1741,00;98,10
1738,00;97,85
1735,00;97,44
1732,00;97,32
1729,00;96,96
1726,00;96,58
1723,00;96,19
1720,00;95,74
1717,00;95,43
1714,00;95,14
1711,00;94,76
1708,00;94,40
1705,00;94,10
1702,00;93,72
1699,00;93,49
1696,00;93,19
1693,00;92,97
1690,00;92,63
1687,00;92,21
1684,00;91,95
1681,00;91,61
1678,00;91,19
1675,00;90,78
1672,00;90,30
1669,00;89,83
1666,00;89,31
1663,00;88,81
1660,00;88,27
1657,00;87,74
1654,00;87,20
1651,00;86,52
1648,00;86,14
1645,00;85,48
1642,00;85,02
1639,00;84,51
1636,00;83,97
1633,00;83,36
1630,00;82,98
1627,00;82,50
1624,00;82,10
1621,00;81,66
1618,00;81,38
1615,00;81,00
1612,00;80,85
1609,00;80,65
1606,00;80,48
1603,00;80,37
1600,00;80,28
1597,00;80,23
1594,00;80,20
1591,00;80,22
1588,00;80,29
1585,00;80,39
1582,00;80,51
1579,00;80,63
1576,00;80,82
1573,00;81,05
1570,00;81,32
1567,00;81,55
1564,00;81,81
1561,00;82,02
1558,00;82,32
1555,00;82,62
1552,00;82,93
1549,00;83,20
1546,00;83,43
1543,00;83,60
1540,00;83,80
1537,00;84,06
1534,00;84,26
1531,00;84,40
1528,00;84,54
1525,00;84,63
1522,00;84,71
1519,00;84,81
1516,00;84,90
1513,00;84,97
1510,00;84,98
1507,00;84,97
1504,00;85,06
1501,00;85,11
1498,00;85,10
1495,00;85,10
1492,00;85,13
1489,00;85,10
1486,00;85,09
1483,00;85,08
1480,00;85,04
1477,00;84,99
1474,00;84,89
1471,00;84,79
1468,00;84,74
1465,00;84,67
1462,00;84,61
1459,00;84,55
1456,00;84,49
1453,00;84,50
1450,00;84,49
1447,00;84,46
1444,00;84,44
1441,00;84,42
1438,00;84,40
1435,00;84,35
1432,00;84,35
1429,00;84,34
1426,00;84,34
1423,00;84,31
1420,00;84,31
1417,00;84,27
1414,00;84,24
1411,00;84,20
1408,00;84,14
1405,00;84,07
1402,00;83,98
1399,00;83,89
1396,00;83,76
1393,00;83,62
1390,00;83,49
1387,00;83,32
1384,00;83,15
1381,00;83,01
1378,00;82,89
1375,00;82,80
1372,00;82,73
1369,00;82,70
1366,00;82,65
1363,00;82,62
1360,00;82,57
1357,00;82,55
1354,00;82,51
1351,00;82,49
1348,00;82,47
1345,00;82,46
1342,00;82,45
1339,00;82,40
1336,00;82,39
1333,00;82,39
1330,00;82,38
1327,00;82,36
1324,00;82,34
1321,00;82,30
1318,00;82,26
1315,00;82,22
1312,00;82,19
1309,00;82,15
1306,00;82,11
1303,00;82,07
1300,00;82,03
1297,00;82,00
1294,00;81,96
1291,00;81,94
1288,00;81,92
1285,00;81,91
1282,00;81,90
1279,00;81,90
1276,00;81,91
1273,00;81,93
1270,00;81,94
1267,00;81,96
1264,00;81,99
1261,00;82,00
1258,00;82,02
1255,00;82,05
1252,00;82,09
1249,00;82,12
1246,00;82,16
1243,00;82,21
1240,00;82,26
1237,00;82,32
1234,00;82,39
1231,00;82,47
1228,00;82,56
1225,00;82,66
1222,00;82,77
1219,00;82,90
1216,00;83,04
1213,00;83,19
1210,00;83,34
1207,00;83,49
1204,00;83,66
1201,00;83,83
1198,00;83,98
1195,00;84,15
1192,00;84,32
1189,00;84,48
1186,00;84,63
1183,00;84,79
1180,00;84,94
1177,00;85,09
1174,00;85,22
1171,00;85,36
1168,00;85,51
1165,00;85,66
1162,00;85,82
1159,00;86,00
1156,00;86,20
1153,00;86,41
1150,00;86,64
1147,00;86,87
1144,00;87,10
1141,00;87,33
1138,00;87,54
1135,00;87,75
1132,00;87,96
1129,00;88,16
1126,00;88,35
1123,00;88,55
1120,00;88,74
1117,00;88,91
1114,00;89,09
1111,00;89,26
1108,00;89,44
1105,00;89,59
1102,00;89,74
1099,00;89,89
1096,00;90,01
1093,00;90,11
1090,00;90,18
1087,00;90,24
1084,00;90,28
1081,00;90,31
1078,00;90,33
1075,00;90,35
1072,00;90,37
1069,00;90,38
1066,00;90,42
1063,00;90,46
1060,00;90,51
1057,00;90,57
1054,00;90,66
1051,00;90,77
1048,00;90,89
1045,00;91,05
1042,00;91,20
1039,00;91,36
1036,00;91,52
1033,00;91,68
1030,00;91,85
1027,00;92,03
1024,00;92,18
1021,00;92,34
1018,00;92,50
1015,00;92,66
1012,00;92,81
1009,00;92,95
1006,00;93,08
1003,00;93,18
1000,00;93,27
997,00;93,37
994,00;93,46
991,00;93,54
988,00;93,61
985,00;93,67
982,00;93,72
979,00;93,78
976,00;93,82
973,00;93,85
970,00;93,88
967,00;93,91
964,00;93,94
961,00;93,97
958,00;93,98
955,00;93,98
952,00;93,97
949,00;93,95
946,00;93,93
943,00;93,92
940,00;93,89
937,00;93,85
934,00;93,79
931,00;93,73
928,00;93,64
925,00;93,54
922,00;93,43
919,00;93,30
916,00;93,18
913,00;93,04
910,00;92,89
907,00;92,73
904,00;92,55
901,00;92,36
898,00;92,18
895,00;91,99
892,00;91,82
889,00;91,65
886,00;91,48
883,00;91,30
880,00;91,12
877,00;90,95
874,00;90,78
871,00;90,61
868,00;90,44
865,00;90,25
862,00;90,08
859,00;89,93
856,00;89,77
853,00;89,61
850,00;89,46
847,00;89,28
844,00;89,09
841,00;88,92
838,00;88,73
835,00;88,55
832,00;88,40
829,00;88,29
826,00;88,19
823,00;88,09
820,00;88,00
817,00;87,91
814,00;87,85
811,00;87,79
808,00;87,73
805,00;87,68
802,00;87,62
799,00;87,55
796,00;87,50
793,00;87,44
790,00;87,38
787,00;87,32
784,00;87,26
781,00;87,19
778,00;87,11
775,00;87,04
772,00;86,96
769,00;86,89
766,00;86,80
763,00;86,74
760,00;86,68
757,00;86,63
754,00;86,58
751,00;86,54
748,00;86,54
745,00;86,54
742,00;86,56
739,00;86,57
736,00;86,54
733,00;86,50
730,00;86,48
727,00;86,41
724,00;86,33
721,00;86,27
718,00;86,22
715,00;86,14
712,00;86,09
709,00;86,03
706,00;85,96
703,00;85,90
700,00;85,82
697,00;85,73
694,00;85,64
691,00;85,57
688,00;85,46
685,00;85,38
682,00;85,30
679,00;85,21
676,00;85,13
673,00;85,02
670,00;85,00
667,00;84,90
664,00;84,77
661,00;84,66
658,00;84,55
655,00;84,47
652,00;84,40
649,00;84,29
646,00;84,17
643,00;84,11
640,00;84,06
637,00;83,95
634,00;83,87
631,00;83,81
628,00;83,71
625,00;83,60
622,00;83,54
619,00;83,48
616,00;83,48
613,00;83,38
610,00;83,36
607,00;83,29
604,00;83,25
601,00;83,22
598,00;83,14
595,00;83,08
592,00;83,04
589,00;82,91
586,00;82,95
583,00;82,94
580,00;82,93
577,00;82,95
574,00;82,84
571,00;82,79
568,00;82,73
565,00;82,76
562,00;82,67
559,00;82,61
556,00;82,50
553,00;82,53
550,00;82,39
547,00;82,41
544,00;82,36
541,00;82,31
538,00;82,36
535,00;82,45
532,00;82,32
529,00;82,31
526,00;82,42
523,00;82,49
520,00;82,36
517,00;82,29
514,00;82,10
511,00;82,74
508,00;82,16
505,00;81,96
502,00;82,29
500,00;81,81