File: FTIR/LNB_28-10-2024/MoS2(1)-5H.csv
Criado como novo conjunto de dados;Amostra 007 por Analyst data segunda-feira, outubro 28 2024
cm-1;%T
4000,00;58,74
3997,00;58,73
3994,00;58,72
3991,00;58,70
3988,00;58,72
3985,00;58,72
3982,00;58,72
3979,00;58,70
3976,00;58,68
3973,00;58,66
3970,00;58,66
3967,00;58,69
3964,00;58,65
3961,00;58,66
3958,00;58,63
3955,00;58,64
3952,00;58,54
3949,00;58,48
3946,00;58,41
3943,00;58,45
3940,00;58,50
3937,00;58,58
3934,00;58,41
3931,00;58,41
3928,00;58,32
3925,00;58,38
3922,00;58,28
3919,00;58,22
3916,00;58,38
3913,00;58,49
3910,00;58,63
3907,00;58,17
3904,00;57,70
3901,00;57,47
3898,00;57,98
3895,00;58,10
3892,00;58,19
3889,00;57,98
3886,00;57,99
3883,00;57,80
3880,00;58,12
3877,00;57,91
3874,00;58,02
3871,00;57,48
3868,00;57,69
3865,00;57,68
3862,00;57,98
3859,00;57,99
3856,00;57,15
3853,00;57,17
3850,00;57,42
3847,00;58,37
3844,00;58,10
3841,00;57,47
3838,00;57,35
3835,00;57,50
3832,00;57,99
3829,00;58,10
3826,00;58,21
3823,00;57,48
3820,00;57,66
3817,00;57,38
3814,00;58,24
3811,00;58,38
3808,00;58,10
3805,00;57,84
3802,00;57,64
3799,00;57,74
3796,00;58,28
3793,00;58,44
3790,00;58,69
3787,00;58,55
3784,00;58,52
3781,00;58,25
3778,00;58,48
3775,00;58,50
3772,00;58,33
3769,00;58,26
3766,00;58,16
3763,00;58,26
3760,00;58,13
3757,00;58,01
3754,00;57,40
3751,00;57,10
3748,00;56,98
3745,00;57,13
3742,00;57,48
3739,00;57,68
3736,00;57,22
3733,00;57,29
3730,00;57,84
3727,00;58,15
3724,00;58,05
3721,00;58,17
3718,00;58,36
3715,00;58,11
3712,00;57,78
3709,00;57,97
3706,00;58,34
3703,00;58,43
3700,00;58,53
3697,00;58,59
3694,00;58,43
3691,00;57,76
3688,00;57,95
3685,00;58,34
3682,00;58,69
3679,00;58,08
3676,00;57,45
3673,00;57,31
3670,00;57,85
3667,00;58,23
3664,00;58,81
3661,00;58,85
3658,00;58,44
3655,00;58,40
3652,00;57,54
3649,00;57,32
3646,00;57,66
3643,00;58,43
3640,00;58,76
3637,00;58,68
3634,00;58,50
3631,00;57,69
3628,00;57,95
3625,00;58,07
3622,00;58,28
3619,00;58,02
3616,00;57,78
3613,00;58,00
3610,00;57,88
3607,00;58,26
3604,00;58,37
3601,00;58,45
3598,00;58,31
3595,00;58,29
3592,00;58,25
3589,00;57,95
3586,00;58,10
3583,00;58,28
3580,00;58,59
3577,00;58,58
3574,00;58,60
3571,00;58,33
3568,00;57,86
3565,00;57,91
3562,00;58,18
3559,00;58,50
3556,00;58,50
3553,00;58,43
3550,00;58,34
3547,00;58,22
3544,00;58,28
3541,00;58,42
3538,00;58,48
3535,00;58,50
3532,00;58,42
3529,00;58,33
3526,00;58,24
3523,00;58,28
3520,00;58,38
3517,00;58,48
3514,00;58,45
3511,00;58,38
3508,00;58,37
3505,00;58,26
3502,00;58,31
3499,00;58,32
3496,00;58,40
3493,00;58,42
3490,00;58,40
3487,00;58,38
3484,00;58,33
3481,00;58,34
3478,00;58,35
3475,00;58,39
3472,00;58,38
3469,00;58,35
3466,00;58,36
3463,00;58,33
3460,00;58,34
3457,00;58,36
3454,00;58,37
3451,00;58,34
3448,00;58,25
3445,00;58,24
3442,00;58,28
3439,00;58,30
3436,00;58,32
3433,00;58,32
3430,00;58,30
3427,00;58,31
3424,00;58,28
3421,00;58,24
3418,00;58,25
3415,00;58,27
3412,00;58,28
3409,00;58,28
3406,00;58,27
3403,00;58,24
3400,00;58,23
3397,00;58,23
3394,00;58,19
3391,00;58,22
3388,00;58,23
3385,00;58,22
3382,00;58,21
3379,00;58,22
3376,00;58,22
3373,00;58,22
3370,00;58,20
3367,00;58,19
3364,00;58,20
3361,00;58,19
3358,00;58,20
3355,00;58,21
3352,00;58,21
3349,00;58,23
3346,00;58,23
3343,00;58,22
3340,00;58,21
3337,00;58,21
3334,00;58,23
3331,00;58,24
3328,00;58,23
3325,00;58,24
3322,00;58,26
3319,00;58,27
3316,00;58,28
3313,00;58,27
3310,00;58,26
3307,00;58,28
3304,00;58,31
3301,00;58,32
3298,00;58,31
3295,00;58,31
3292,00;58,32
3289,00;58,33
3286,00;58,34
3283,00;58,34
3280,00;58,34
3277,00;58,33
3274,00;58,33
3271,00;58,35
3268,00;58,38
3265,00;58,39
3262,00;58,38
3259,00;58,38
3256,00;58,37
3253,00;58,39
3250,00;58,40
3247,00;58,39
3244,00;58,39
3241,00;58,40
3238,00;58,40
3235,00;58,39
3232,00;58,40
3229,00;58,39
3226,00;58,39
3223,00;58,39
3220,00;58,38
3217,00;58,37
3214,00;58,37
3211,00;58,36
3208,00;58,37
3205,00;58,37
3202,00;58,37
3199,00;58,34
3196,00;58,33
3193,00;58,33
3190,00;58,33
3187,00;58,31
3184,00;58,30
3181,00;58,29
3178,00;58,27
3175,00;58,27
3172,00;58,27
3169,00;58,25
3166,00;58,24
3163,00;58,23
3160,00;58,22
3157,00;58,20
3154,00;58,19
3151,00;58,19
3148,00;58,17
3145,00;58,15
3142,00;58,14
3139,00;58,13
3136,00;58,12
3133,00;58,09
3130,00;58,08
3127,00;58,07
3124,00;58,04
3121,00;58,03
3118,00;58,02
3115,00;58,02
3112,00;58,02
3109,00;58,01
3106,00;58,01
3103,00;57,99
3100,00;57,98
3097,00;57,97
3094,00;57,98
3091,00;57,98
3088,00;57,98
3085,00;57,97
3082,00;57,95
3079,00;57,95
3076,00;57,96
3073,00;57,96
3070,00;57,95
3067,00;57,93
3064,00;57,92
3061,00;57,92
3058,00;57,91
3055,00;57,92
3052,00;57,91
3049,00;57,91
3046,00;57,90
3043,00;57,91
3040,00;57,90
3037,00;57,88
3034,00;57,86
3031,00;57,85
3028,00;57,85
3025,00;57,86
3022,00;57,86
3019,00;57,84
3016,00;57,83
3013,00;57,82
3010,00;57,82
3007,00;57,81
3004,00;57,81
3001,00;57,80
2998,00;57,80
2995,00;57,79
2992,00;57,79
2989,00;57,78
2986,00;57,77
2983,00;57,76
2980,00;57,75
2977,00;57,74
2974,00;57,72
2971,00;57,71
2968,00;57,69
2965,00;57,68
2962,00;57,67
2959,00;57,66
2956,00;57,63
2953,00;57,60
2950,00;57,58
2947,00;57,57
2944,00;57,56
2941,00;57,56
2938,00;57,55
2935,00;57,55
2932,00;57,54
2929,00;57,53
2926,00;57,51
2923,00;57,46
2920,00;57,39
2917,00;57,33
2914,00;57,30
2911,00;57,29
2908,00;57,29
2905,00;57,30
2902,00;57,32
2899,00;57,34
2896,00;57,37
2893,00;57,38
2890,00;57,39
2887,00;57,39
2884,00;57,40
2881,00;57,40
2878,00;57,39
2875,00;57,40
2872,00;57,41
2869,00;57,41
2866,00;57,40
2863,00;57,40
2860,00;57,40
2857,00;57,40
2854,00;57,40
2851,00;57,38
2848,00;57,37
2845,00;57,36
2842,00;57,35
2839,00;57,36
2836,00;57,37
2833,00;57,38
2830,00;57,39
2827,00;57,40
2824,00;57,42
2821,00;57,42
2818,00;57,43
2815,00;57,43
2812,00;57,43
2809,00;57,43
2806,00;57,43
2803,00;57,44
2800,00;57,44
2797,00;57,44
2794,00;57,44
2791,00;57,44
2788,00;57,44
2785,00;57,44
2782,00;57,44
2779,00;57,44
2776,00;57,44
2773,00;57,44
2770,00;57,44
2767,00;57,44
2764,00;57,44
2761,00;57,44
2758,00;57,44
2755,00;57,44
2752,00;57,44
2749,00;57,44
2746,00;57,45
2743,00;57,45
2740,00;57,44
2737,00;57,44
2734,00;57,45
2731,00;57,45
2728,00;57,45
2725,00;57,45
2722,00;57,45
2719,00;57,45
2716,00;57,46
2713,00;57,46
2710,00;57,46
2707,00;57,46
2704,00;57,46
2701,00;57,46
2698,00;57,47
2695,00;57,46
2692,00;57,47
2689,00;57,47
2686,00;57,47
2683,00;57,47
2680,00;57,47
2677,00;57,48
2674,00;57,48
2671,00;57,48
2668,00;57,47
2665,00;57,47
2662,00;57,45
2659,00;57,44
2656,00;57,46
2653,00;57,48
2650,00;57,50
2647,00;57,53
2644,00;57,55
2641,00;57,58
2638,00;57,61
2635,00;57,64
2632,00;57,67
2629,00;57,69
2626,00;57,71
2623,00;57,74
2620,00;57,76
2617,00;57,78
2614,00;57,80
2611,00;57,82
2608,00;57,83
2605,00;57,85
2602,00;57,86
2599,00;57,88
2596,00;57,89
2593,00;57,90
2590,00;57,92
2587,00;57,93
2584,00;57,94
2581,00;57,95
2578,00;57,96
2575,00;57,97
2572,00;57,98
2569,00;57,98
2566,00;57,99
2563,00;58,00
2560,00;58,01
2557,00;58,02
2554,00;58,02
2551,00;58,03
2548,00;58,03
2545,00;58,03
2542,00;58,04
2539,00;58,05
2536,00;58,05
2533,00;58,05
2530,00;58,05
2527,00;58,06
2524,00;58,07
2521,00;58,07
2518,00;58,07
2515,00;58,07
2512,00;58,07
2509,00;58,08
2506,00;58,08
2503,00;58,07
2500,00;58,08
2497,00;58,09
2494,00;58,08
2491,00;58,09
2488,00;58,10
2485,00;58,10
2482,00;58,10
2479,00;58,11
2476,00;58,11
2473,00;58,11
2470,00;58,11
2467,00;58,11
2464,00;58,11
2461,00;58,10
2458,00;58,10
2455,00;58,10
2452,00;58,10
2449,00;58,11
2446,00;58,12
2443,00;58,12
2440,00;58,13
2437,00;58,14
2434,00;58,15
2431,00;58,16
2428,00;58,16
2425,00;58,16
2422,00;58,17
2419,00;58,17
2416,00;58,17
2413,00;58,17
2410,00;58,17
2407,00;58,18
2404,00;58,20
2401,00;58,19
2398,00;58,19
2395,00;58,19
2392,00;58,18
2389,00;58,17
2386,00;58,17
2383,00;58,14
2380,00;58,10
2377,00;58,04
2374,00;58,05
2371,00;58,11
2368,00;58,11
2365,00;58,08
2362,00;58,04
2359,00;58,07
2356,00;58,15
2353,00;58,29
2350,00;58,13
2347,00;58,09
2344,00;57,81
2341,00;57,84
2338,00;58,04
2335,00;58,11
2332,00;58,18
2329,00;58,19
2326,00;58,09
2323,00;58,04
2320,00;58,20
2317,00;58,31
2314,00;58,34
2311,00;58,30
2308,00;58,28
2305,00;58,26
2302,00;58,24
2299,00;58,20
2296,00;58,17
2293,00;58,13
2290,00;58,11
2287,00;58,09
2284,00;58,10
2281,00;58,15
2278,00;58,16
2275,00;58,17
2272,00;58,20
2269,00;58,21
2266,00;58,25
2263,00;58,26
2260,00;58,26
2257,00;58,26
2254,00;58,31
2251,00;58,33
2248,00;58,32
2245,00;58,32
2242,00;58,32
2239,00;58,34
2236,00;58,34
2233,00;58,35
2230,00;58,35
2227,00;58,36
2224,00;58,37
2221,00;58,38
2218,00;58,39
2215,00;58,38
2212,00;58,39
2209,00;58,41
2206,00;58,40
2203,00;58,40
2200,00;58,41
2197,00;58,40
2194,00;58,40
2191,00;58,37
2188,00;58,36
2185,00;58,36
2182,00;58,46
2179,00;58,49
2176,00;58,47
2173,00;58,50
2170,00;58,40
2167,00;58,32
2164,00;58,25
2161,00;58,22
2158,00;58,90
2155,00;59,08
2152,00;58,90
2149,00;58,83
2146,00;58,84
2143,00;58,83
2140,00;58,80
2137,00;58,82
2134,00;58,94
2131,00;58,93
2128,00;58,83
2125,00;58,75
2122,00;58,70
2119,00;58,68
2116,00;58,62
2113,00;58,58
2110,00;58,58
2107,00;58,60
2104,00;58,61
2101,00;58,61
2098,00;58,62
2095,00;58,71
2092,00;58,72
2089,00;58,65
2086,00;58,63
2083,00;58,61
2080,00;58,61
2077,00;58,61
2074,00;58,61
2071,00;58,64
2068,00;58,66
2065,00;58,68
2062,00;58,69
2059,00;58,67
2056,00;58,66
2053,00;58,62
2050,00;58,42
2047,00;58,60
2044,00;58,64
2041,00;58,66
2038,00;58,67
2035,00;58,70
2032,00;58,83
2029,00;58,87
2026,00;58,87
2023,00;58,91
2020,00;58,89
2017,00;58,89
2014,00;58,90
2011,00;58,89
2008,00;58,96
2005,00;59,13
2002,00;59,07
1999,00;58,99
1996,00;58,94
1993,00;58,92
1990,00;58,89
1987,00;58,88
1984,00;58,84
1981,00;58,71
1978,00;58,82
1975,00;59,13
1972,00;59,18
1969,00;59,17
1966,00;59,19
1963,00;59,21
1960,00;59,31
1957,00;59,34
1954,00;59,27
1951,00;59,25
1948,00;59,24
1945,00;59,24
1942,00;59,27
1939,00;59,28
1936,00;59,29
1933,00;59,28
1930,00;59,29
1927,00;59,28
1924,00;59,28
1921,00;59,26
1918,00;59,28
1915,00;59,29
1912,00;59,28
1909,00;59,27
1906,00;59,28
1903,00;59,28
1900,00;59,30
1897,00;59,28
1894,00;59,29
1891,00;59,30
1888,00;59,32
1885,00;59,33
1882,00;59,33
1879,00;59,34
1876,00;59,35
1873,00;59,33
1870,00;59,31
1867,00;59,34
1864,00;59,38
1861,00;59,37
1858,00;59,38
1855,00;59,39
1852,00;59,38
1849,00;59,37
1846,00;59,40
1843,00;59,41
1840,00;59,42
1837,00;59,41
1834,00;59,40
1831,00;59,38
1828,00;59,38
1825,00;59,42
1822,00;59,41
1819,00;59,45
1816,00;59,50
1813,00;59,40
1810,00;59,38
1807,00;59,39
1804,00;59,36
1801,00;59,36
1798,00;59,34
1795,00;59,34
1792,00;59,38
1789,00;59,38
1786,00;59,39
1783,00;59,38
1780,00;59,37
1777,00;59,36
1774,00;59,36
1771,00;59,32
1768,00;59,41
1765,00;59,35
1762,00;59,36
1759,00;59,33
1756,00;59,33
1753,00;59,31
1750,00;59,25
1747,00;59,26
1744,00;59,24
1741,00;59,28
1738,00;59,24
1735,00;59,30
1732,00;59,19
1729,00;59,26
1726,00;59,23
1723,00;59,19
1720,00;59,18
1717,00;59,12
1714,00;59,13
1711,00;59,13
1708,00;59,06
1705,00;59,02
1702,00;59,11
1699,00;59,00
1696,00;59,10
1693,00;58,96
1690,00;58,93
1687,00;58,96
1684,00;58,89
1681,00;58,93
1678,00;58,98
1675,00;58,98
1672,00;58,91
1669,00;58,96
1666,00;58,96
1663,00;58,92
1660,00;58,92
1657,00;58,86
1654,00;58,86
1651,00;58,65
1648,00;58,68
1645,00;58,75
1642,00;58,68
1639,00;58,57
1636,00;58,58
1633,00;58,57
1630,00;58,53
1627,00;58,49
1624,00;58,48
1621,00;58,49
1618,00;58,51
1615,00;58,46
1612,00;58,51
1609,00;58,52
1606,00;58,55
1603,00;58,55
1600,00;58,59
1597,00;58,60
1594,00;58,62
1591,00;58,65
1588,00;58,68
1585,00;58,71
1582,00;58,72
1579,00;58,71
1576,00;58,72
1573,00;58,75
1570,00;58,77
1567,00;58,80
1564,00;58,80
1561,00;58,84
1558,00;58,90
1555,00;58,93
1552,00;58,91
1549,00;58,96
1546,00;58,94
1543,00;58,92
1540,00;58,98
1537,00;58,95
1534,00;59,02
1531,00;59,07
1528,00;59,06
1525,00;59,07
1522,00;59,09
1519,00;59,09
1516,00;59,15
1513,00;59,19
1510,00;59,11
1507,00;59,20
1504,00;59,18
1501,00;59,21
1498,00;59,25
1495,00;59,25
1492,00;59,22
1489,00;59,21
1486,00;59,26
1483,00;59,23
1480,00;59,21
1477,00;59,16
1474,00;59,13
1471,00;59,11
1468,00;59,03
1465,00;58,93
1462,00;58,85
1459,00;58,75
1456,00;58,81
1453,00;58,73
1450,00;58,67
1447,00;58,64
1444,00;58,61
1441,00;58,55
1438,00;58,56
1435,00;58,56
1432,00;58,50
1429,00;58,51
1426,00;58,51
1423,00;58,53
1420,00;58,56
1417,00;58,63
1414,00;58,68
1411,00;58,71
1408,00;58,76
1405,00;58,81
1402,00;58,89
1399,00;58,89
1396,00;58,98
1393,00;59,05
1390,00;59,06
1387,00;59,08
1384,00;59,12
1381,00;59,11
1378,00;59,10
1375,00;59,08
1372,00;59,16
1369,00;59,18
1366,00;59,20
1363,00;59,20
1360,00;59,26
1357,00;59,27
1354,00;59,30
1351,00;59,33
1348,00;59,37
1345,00;59,41
1342,00;59,41
1339,00;59,45
1336,00;59,52
1333,00;59,55
1330,00;59,58
1327,00;59,61
1324,00;59,63
1321,00;59,64
1318,00;59,66
1315,00;59,69
1312,00;59,72
1309,00;59,75
1306,00;59,78
1303,00;59,80
1300,00;59,82
1297,00;59,83
1294,00;59,85
1291,00;59,86
1288,00;59,87
1285,00;59,87
1282,00;59,87
1279,00;59,85
1276,00;59,83
1273,00;59,78
1270,00;59,71
1267,00;59,61
1264,00;59,51
1261,00;59,43
1258,00;59,41
1255,00;59,35
1252,00;59,27
1249,00;59,17
1246,00;59,06
1243,00;58,93
1240,00;58,79
1237,00;58,65
1234,00;58,52
1231,00;58,39
1228,00;58,25
1225,00;58,13
1222,00;58,00
1219,00;57,89
1216,00;57,77
1213,00;57,66
1210,00;57,56
1207,00;57,46
1204,00;57,36
1201,00;57,28
1198,00;57,19
1195,00;57,11
1192,00;57,02
1189,00;56,94
1186,00;56,87
1183,00;56,77
1180,00;56,67
1177,00;56,57
1174,00;56,46
1171,00;56,33
1168,00;56,21
1165,00;56,11
1162,00;56,02
1159,00;55,93
1156,00;55,83
1153,00;55,73
1150,00;55,62
1147,00;55,52
1144,00;55,43
1141,00;55,35
1138,00;55,27
1135,00;55,19
1132,00;55,12
1129,00;55,05
1126,00;55,00
1123,00;54,95
1120,00;54,92
1117,00;54,91
1114,00;54,90
1111,00;54,90
1108,00;54,93
1105,00;54,98
1102,00;55,04
1099,00;55,10
1096,00;55,17
1093,00;55,25
1090,00;55,33
1087,00;55,40
1084,00;55,47
1081,00;55,53
1078,00;55,60
1075,00;55,66
1072,00;55,70
1069,00;55,75
1066,00;55,79
1063,00;55,82
1060,00;55,87
1057,00;55,96
1054,00;56,05
1051,00;56,13
1048,00;56,22
1045,00;56,32
1042,00;56,45
1039,00;56,58
1036,00;56,71
1033,00;56,84
1030,00;56,99
1027,00;57,14
1024,00;57,26
1021,00;57,36
1018,00;57,45
1015,00;57,54
1012,00;57,60
1009,00;57,64
1006,00;57,67
1003,00;57,70
1000,00;57,73
997,00;57,73
994,00;57,73
991,00;57,70
988,00;57,64
985,00;57,56
982,00;57,47
979,00;57,41
976,00;57,38
973,00;57,38
970,00;57,39
967,00;57,41
964,00;57,41
961,00;57,38
958,00;57,34
955,00;57,36
952,00;57,40
949,00;57,45
946,00;57,52
943,00;57,60
940,00;57,68
937,00;57,78
934,00;57,89
931,00;58,00
928,00;58,11
925,00;58,20
922,00;58,27
919,00;58,32
916,00;58,36
913,00;58,42
910,00;58,48
907,00;58,53
904,00;58,59
901,00;58,65
898,00;58,72
895,00;58,78
892,00;58,84
889,00;58,89
886,00;58,92
883,00;58,95
880,00;58,97
877,00;59,00
874,00;59,04
871,00;59,08
868,00;59,11
865,00;59,15
862,00;59,20
859,00;59,23
856,00;59,28
853,00;59,30
850,00;59,31
847,00;59,33
844,00;59,34
841,00;59,34
838,00;59,34
835,00;59,32
832,00;59,30
829,00;59,26
826,00;59,20
823,00;59,10
820,00;59,04
817,00;58,97
814,00;58,87
811,00;58,77
808,00;58,65
805,00;58,54
802,00;58,44
799,00;58,34
796,00;58,21
793,00;58,08
790,00;57,92
787,00;57,73
784,00;57,53
781,00;57,30
778,00;57,08
775,00;56,94
772,00;56,77
769,00;56,60
766,00;56,41
763,00;56,23
760,00;56,05
757,00;55,91
754,00;55,76
751,00;55,62
748,00;55,50
745,00;55,37
742,00;55,25
739,00;55,15
736,00;55,02
733,00;54,91
730,00;54,80
727,00;54,68
724,00;54,56
721,00;54,45
718,00;54,36
715,00;54,26
712,00;54,18
709,00;54,09
706,00;53,97
703,00;53,88
700,00;53,77
697,00;53,69
694,00;53,60
691,00;53,48
688,00;53,36
685,00;53,23
682,00;53,07
679,00;52,89
676,00;52,72
673,00;52,54
670,00;52,38
667,00;52,82
664,00;52,24
661,00;51,90
658,00;51,75
655,00;51,60
652,00;51,49
649,00;51,33
646,00;51,20
643,00;50,98
640,00;50,81
637,00;50,66
634,00;50,44
631,00;50,18
628,00;49,95
625,00;49,77
622,00;49,59
619,00;49,39
616,00;49,20
613,00;49,05
610,00;48,91
607,00;48,74
604,00;48,55
601,00;48,38
598,00;48,18
595,00;47,98
592,00;47,80
589,00;47,71
586,00;47,66
583,00;47,66
580,00;47,53
577,00;47,55
574,00;47,52
571,00;47,51
568,00;47,68
565,00;47,78
562,00;47,86
559,00;47,98
556,00;48,08
553,00;48,28
550,00;48,37
547,00;48,40
544,00;48,44
541,00;48,44
538,00;48,12
535,00;47,83
532,00;47,59
529,00;47,28
526,00;46,93
523,00;46,55
520,00;46,11
517,00;45,71
514,00;45,00
511,00;44,05
508,00;43,83
505,00;43,84
502,00;42,89
500,00;43,16