File: FTIR/LNB_28-10-2024/MoS2(1)-1H_1.csv
Criado como novo conjunto de dados;Amostra 003 por Analyst data segunda-feira, outubro 28 2024
cm-1;%T
4000,00;25,79
3997,00;25,79
3994,00;25,80
3991,00;25,80
3988,00;25,79
3985,00;25,79
3982,00;25,79
3979,00;25,80
3976,00;25,82
3973,00;25,82
3970,00;25,81
3967,00;25,79
3964,00;25,82
3961,00;25,82
3958,00;25,82
3955,00;25,83
3952,00;25,91
3949,00;25,94
3946,00;25,96
3943,00;25,89
3940,00;25,89
3937,00;25,84
3934,00;25,98
3931,00;25,96
3928,00;25,99
3925,00;25,96
3922,00;26,06
3919,00;26,03
3916,00;25,89
3913,00;25,81
3910,00;25,83
3907,00;26,17
3904,00;26,40
3901,00;26,37
3898,00;26,01
3895,00;26,06
3892,00;26,01
3889,00;26,27
3886,00;26,00
3883,00;26,38
3880,00;26,00
3877,00;26,22
3874,00;26,21
3871,00;26,43
3868,00;26,43
3865,00;26,19
3862,00;26,20
3859,00;26,20
3856,00;26,67
3853,00;26,39
3850,00;26,46
3847,00;25,99
3844,00;26,20
3841,00;26,66
3838,00;26,50
3835,00;26,47
3832,00;26,11
3829,00;26,17
3826,00;26,16
3823,00;26,55
3820,00;26,52
3817,00;26,31
3814,00;26,11
3811,00;25,98
3808,00;26,11
3805,00;26,52
3802,00;26,27
3799,00;26,55
3796,00;26,00
3793,00;25,95
3790,00;25,85
3787,00;25,98
3784,00;26,04
3781,00;26,14
3778,00;26,03
3775,00;25,94
3772,00;26,12
3769,00;26,18
3766,00;26,11
3763,00;26,19
3760,00;26,21
3757,00;26,39
3754,00;26,66
3751,00;26,79
3748,00;26,97
3745,00;26,34
3742,00;26,64
3739,00;26,54
3736,00;26,85
3733,00;26,60
3730,00;26,33
3727,00;26,19
3724,00;26,34
3721,00;26,21
3718,00;26,09
3715,00;26,34
3712,00;26,48
3709,00;26,32
3706,00;26,10
3703,00;26,08
3700,00;26,07
3697,00;25,96
3694,00;26,20
3691,00;26,58
3688,00;26,28
3685,00;26,08
3682,00;25,98
3679,00;26,45
3676,00;26,58
3673,00;26,80
3670,00;26,13
3667,00;26,11
3664,00;25,76
3661,00;25,83
3658,00;26,02
3655,00;26,07
3652,00;26,52
3649,00;26,68
3646,00;26,26
3643,00;25,80
3640,00;25,75
3637,00;25,81
3634,00;25,90
3631,00;26,30
3628,00;25,93
3625,00;25,83
3622,00;25,89
3619,00;25,97
3616,00;26,09
3613,00;25,90
3610,00;25,85
3607,00;25,59
3604,00;25,56
3601,00;25,60
3598,00;25,68
3595,00;25,59
3592,00;25,59
3589,00;25,68
3586,00;25,56
3583,00;25,35
3580,00;25,26
3577,00;25,25
3574,00;25,21
3571,00;25,40
3568,00;25,63
3565,00;25,47
3562,00;25,22
3559,00;25,10
3556,00;25,09
3553,00;25,12
3550,00;25,16
3547,00;25,19
3544,00;25,09
3541,00;24,95
3538,00;24,93
3535,00;24,90
3532,00;24,90
3529,00;24,97
3526,00;25,01
3523,00;24,90
3520,00;24,81
3517,00;24,75
3514,00;24,76
3511,00;24,79
3508,00;24,76
3505,00;24,81
3502,00;24,78
3499,00;24,71
3496,00;24,66
3493,00;24,63
3490,00;24,62
3487,00;24,62
3484,00;24,62
3481,00;24,61
3478,00;24,56
3475,00;24,52
3472,00;24,52
3469,00;24,54
3466,00;24,51
3463,00;24,48
3460,00;24,47
3457,00;24,42
3454,00;24,39
3451,00;24,41
3448,00;24,46
3445,00;24,43
3442,00;24,37
3439,00;24,36
3436,00;24,36
3433,00;24,34
3430,00;24,33
3427,00;24,29
3424,00;24,30
3421,00;24,31
3418,00;24,27
3415,00;24,25
3412,00;24,25
3409,00;24,24
3406,00;24,22
3403,00;24,24
3400,00;24,25
3397,00;24,21
3394,00;24,23
3391,00;24,20
3388,00;24,15
3385,00;24,14
3382,00;24,14
3379,00;24,13
3376,00;24,12
3373,00;24,11
3370,00;24,15
3367,00;24,14
3364,00;24,11
3361,00;24,09
3358,00;24,07
3355,00;24,05
3352,00;24,06
3349,00;24,04
3346,00;24,01
3343,00;24,02
3340,00;24,03
3337,00;24,02
3334,00;23,97
3331,00;23,95
3328,00;23,96
3325,00;23,96
3322,00;23,91
3319,00;23,89
3316,00;23,88
3313,00;23,88
3310,00;23,91
3307,00;23,91
3304,00;23,86
3301,00;23,81
3298,00;23,82
3295,00;23,82
3292,00;23,81
3289,00;23,76
3286,00;23,73
3283,00;23,71
3280,00;23,70
3277,00;23,71
3274,00;23,71
3271,00;23,70
3268,00;23,64
3265,00;23,61
3262,00;23,60
3259,00;23,60
3256,00;23,61
3253,00;23,57
3250,00;23,56
3247,00;23,58
3244,00;23,55
3241,00;23,52
3238,00;23,52
3235,00;23,54
3232,00;23,52
3229,00;23,49
3226,00;23,48
3223,00;23,47
3220,00;23,48
3217,00;23,48
3214,00;23,47
3211,00;23,46
3208,00;23,46
3205,00;23,45
3202,00;23,45
3199,00;23,46
3196,00;23,46
3193,00;23,45
3190,00;23,45
3187,00;23,46
3184,00;23,46
3181,00;23,47
3178,00;23,48
3175,00;23,47
3172,00;23,47
3169,00;23,48
3166,00;23,48
3163,00;23,49
3160,00;23,50
3157,00;23,52
3154,00;23,55
3151,00;23,55
3148,00;23,53
3145,00;23,53
3142,00;23,56
3139,00;23,58
3136,00;23,56
3133,00;23,56
3130,00;23,58
3127,00;23,57
3124,00;23,60
3121,00;23,64
3118,00;23,65
3115,00;23,63
3112,00;23,60
3109,00;23,61
3106,00;23,58
3103,00;23,59
3100,00;23,61
3097,00;23,58
3094,00;23,57
3091,00;23,59
3088,00;23,59
3085,00;23,60
3082,00;23,61
3079,00;23,61
3076,00;23,57
3073,00;23,54
3070,00;23,56
3067,00;23,59
3064,00;23,56
3061,00;23,54
3058,00;23,56
3055,00;23,56
3052,00;23,56
3049,00;23,56
3046,00;23,57
3043,00;23,58
3040,00;23,57
3037,00;23,57
3034,00;23,60
3031,00;23,58
3028,00;23,56
3025,00;23,57
3022,00;23,57
3019,00;23,59
3016,00;23,61
3013,00;23,62
3010,00;23,59
3007,00;23,57
3004,00;23,57
3001,00;23,57
2998,00;23,58
2995,00;23,59
2992,00;23,60
2989,00;23,57
2986,00;23,57
2983,00;23,59
2980,00;23,62
2977,00;23,61
2974,00;23,60
2971,00;23,59
2968,00;23,58
2965,00;23,57
2962,00;23,55
2959,00;23,52
2956,00;23,51
2953,00;23,53
2950,00;23,52
2947,00;23,55
2944,00;23,57
2941,00;23,57
2938,00;23,57
2935,00;23,57
2932,00;23,57
2929,00;23,56
2926,00;23,50
2923,00;23,44
2920,00;23,40
2917,00;23,38
2914,00;23,38
2911,00;23,38
2908,00;23,39
2905,00;23,42
2902,00;23,44
2899,00;23,47
2896,00;23,52
2893,00;23,53
2890,00;23,54
2887,00;23,56
2884,00;23,57
2881,00;23,59
2878,00;23,61
2875,00;23,64
2872,00;23,65
2869,00;23,63
2866,00;23,64
2863,00;23,65
2860,00;23,66
2857,00;23,65
2854,00;23,64
2851,00;23,62
2848,00;23,63
2845,00;23,62
2842,00;23,65
2839,00;23,69
2836,00;23,71
2833,00;23,73
2830,00;23,74
2827,00;23,77
2824,00;23,79
2821,00;23,80
2818,00;23,81
2815,00;23,83
2812,00;23,85
2809,00;23,86
2806,00;23,86
2803,00;23,87
2800,00;23,89
2797,00;23,91
2794,00;23,91
2791,00;23,93
2788,00;23,93
2785,00;23,93
2782,00;23,93
2779,00;23,94
2776,00;23,96
2773,00;23,97
2770,00;23,97
2767,00;23,98
2764,00;23,98
2761,00;23,99
2758,00;24,00
2755,00;24,01
2752,00;24,01
2749,00;24,03
2746,00;24,03
2743,00;24,02
2740,00;24,03
2737,00;24,04
2734,00;24,04
2731,00;24,05
2728,00;24,06
2725,00;24,07
2722,00;24,07
2719,00;24,07
2716,00;24,08
2713,00;24,08
2710,00;24,09
2707,00;24,09
2704,00;24,10
2701,00;24,10
2698,00;24,10
2695,00;24,11
2692,00;24,11
2689,00;24,12
2686,00;24,12
2683,00;24,13
2680,00;24,14
2677,00;24,14
2674,00;24,14
2671,00;24,14
2668,00;24,15
2665,00;24,15
2662,00;24,16
2659,00;24,18
2656,00;24,20
2653,00;24,21
2650,00;24,22
2647,00;24,23
2644,00;24,23
2641,00;24,25
2638,00;24,26
2635,00;24,26
2632,00;24,26
2629,00;24,27
2626,00;24,27
2623,00;24,28
2620,00;24,28
2617,00;24,29
2614,00;24,29
2611,00;24,29
2608,00;24,30
2605,00;24,30
2602,00;24,30
2599,00;24,30
2596,00;24,31
2593,00;24,31
2590,00;24,31
2587,00;24,31
2584,00;24,31
2581,00;24,31
2578,00;24,31
2575,00;24,31
2572,00;24,31
2569,00;24,31
2566,00;24,32
2563,00;24,32
2560,00;24,32
2557,00;24,32
2554,00;24,32
2551,00;24,32
2548,00;24,32
2545,00;24,32
2542,00;24,32
2539,00;24,32
2536,00;24,33
2533,00;24,33
2530,00;24,32
2527,00;24,32
2524,00;24,32
2521,00;24,32
2518,00;24,32
2515,00;24,32
2512,00;24,32
2509,00;24,31
2506,00;24,32
2503,00;24,32
2500,00;24,31
2497,00;24,32
2494,00;24,32
2491,00;24,32
2488,00;24,31
2485,00;24,31
2482,00;24,31
2479,00;24,31
2476,00;24,31
2473,00;24,31
2470,00;24,31
2467,00;24,30
2464,00;24,31
2461,00;24,31
2458,00;24,31
2455,00;24,31
2452,00;24,31
2449,00;24,31
2446,00;24,31
2443,00;24,31
2440,00;24,31
2437,00;24,31
2434,00;24,31
2431,00;24,30
2428,00;24,30
2425,00;24,30
2422,00;24,30
2419,00;24,30
2416,00;24,29
2413,00;24,29
2410,00;24,30
2407,00;24,30
2404,00;24,29
2401,00;24,29
2398,00;24,29
2395,00;24,29
2392,00;24,28
2389,00;24,29
2386,00;24,31
2383,00;24,39
2380,00;24,51
2377,00;24,64
2374,00;24,71
2371,00;24,72
2368,00;24,74
2365,00;24,73
2362,00;24,68
2359,00;24,57
2356,00;24,43
2353,00;24,20
2350,00;24,26
2347,00;24,49
2344,00;24,60
2341,00;24,71
2338,00;24,49
2335,00;24,41
2332,00;24,39
2329,00;24,35
2326,00;24,39
2323,00;24,41
2320,00;24,36
2317,00;24,32
2314,00;24,31
2311,00;24,34
2308,00;24,37
2305,00;24,37
2302,00;24,37
2299,00;24,39
2296,00;24,40
2293,00;24,40
2290,00;24,41
2287,00;24,39
2284,00;24,40
2281,00;24,40
2278,00;24,41
2275,00;24,41
2272,00;24,41
2269,00;24,40
2266,00;24,40
2263,00;24,40
2260,00;24,40
2257,00;24,40
2254,00;24,40
2251,00;24,40
2248,00;24,40
2245,00;24,41
2242,00;24,40
2239,00;24,40
2236,00;24,38
2233,00;24,40
2230,00;24,42
2227,00;24,42
2224,00;24,43
2221,00;24,42
2218,00;24,43
2215,00;24,43
2212,00;24,42
2209,00;24,43
2206,00;24,42
2203,00;24,42
2200,00;24,44
2197,00;24,45
2194,00;24,45
2191,00;24,46
2188,00;24,46
2185,00;24,45
2182,00;24,45
2179,00;24,43
2176,00;24,46
2173,00;24,45
2170,00;24,48
2167,00;24,53
2164,00;24,52
2161,00;24,55
2158,00;24,45
2155,00;24,35
2152,00;24,40
2149,00;24,42
2146,00;24,40
2143,00;24,39
2140,00;24,39
2137,00;24,39
2134,00;24,35
2131,00;24,33
2128,00;24,35
2125,00;24,36
2122,00;24,38
2119,00;24,39
2116,00;24,40
2113,00;24,42
2110,00;24,43
2107,00;24,44
2104,00;24,44
2101,00;24,46
2098,00;24,46
2095,00;24,44
2092,00;24,43
2089,00;24,46
2086,00;24,47
2083,00;24,49
2080,00;24,50
2077,00;24,52
2074,00;24,52
2071,00;24,53
2068,00;24,54
2065,00;24,55
2062,00;24,54
2059,00;24,55
2056,00;24,58
2053,00;24,61
2050,00;24,70
2047,00;24,67
2044,00;24,65
2041,00;24,68
2038,00;24,68
2035,00;24,68
2032,00;24,68
2029,00;24,69
2026,00;24,66
2023,00;24,65
2020,00;24,65
2017,00;24,65
2014,00;24,66
2011,00;24,69
2008,00;24,67
2005,00;24,60
2002,00;24,60
1999,00;24,61
1996,00;24,64
1993,00;24,68
1990,00;24,68
1987,00;24,69
1984,00;24,72
1981,00;24,78
1978,00;24,83
1975,00;24,73
1972,00;24,71
1969,00;24,74
1966,00;24,71
1963,00;24,66
1960,00;24,66
1957,00;24,65
1954,00;24,66
1951,00;24,68
1948,00;24,67
1945,00;24,70
1942,00;24,68
1939,00;24,64
1936,00;24,63
1933,00;24,63
1930,00;24,64
1927,00;24,64
1924,00;24,67
1921,00;24,66
1918,00;24,64
1915,00;24,67
1912,00;24,67
1909,00;24,68
1906,00;24,68
1903,00;24,68
1900,00;24,68
1897,00;24,70
1894,00;24,71
1891,00;24,70
1888,00;24,69
1885,00;24,69
1882,00;24,70
1879,00;24,71
1876,00;24,70
1873,00;24,73
1870,00;24,76
1867,00;24,75
1864,00;24,70
1861,00;24,72
1858,00;24,73
1855,00;24,72
1852,00;24,73
1849,00;24,77
1846,00;24,74
1843,00;24,73
1840,00;24,73
1837,00;24,76
1834,00;24,77
1831,00;24,78
1828,00;24,80
1825,00;24,75
1822,00;24,76
1819,00;24,75
1816,00;24,72
1813,00;24,78
1810,00;24,78
1807,00;24,76
1804,00;24,78
1801,00;24,79
1798,00;24,80
1795,00;24,80
1792,00;24,76
1789,00;24,76
1786,00;24,75
1783,00;24,78
1780,00;24,79
1777,00;24,79
1774,00;24,78
1771,00;24,81
1768,00;24,68
1765,00;24,74
1762,00;24,72
1759,00;24,74
1756,00;24,71
1753,00;24,71
1750,00;24,77
1747,00;24,71
1744,00;24,69
1741,00;24,61
1738,00;24,64
1735,00;24,53
1732,00;24,66
1729,00;24,51
1726,00;24,51
1723,00;24,52
1720,00;24,48
1717,00;24,54
1714,00;24,45
1711,00;24,40
1708,00;24,43
1705,00;24,43
1702,00;24,27
1699,00;24,36
1696,00;24,22
1693,00;24,38
1690,00;24,34
1687,00;24,28
1684,00;24,33
1681,00;24,24
1678,00;24,15
1675,00;24,10
1672,00;24,17
1669,00;24,06
1666,00;24,05
1663,00;24,05
1660,00;24,02
1657,00;24,05
1654,00;24,00
1651,00;24,20
1648,00;24,07
1645,00;23,92
1642,00;23,97
1639,00;24,03
1636,00;23,96
1633,00;23,94
1630,00;23,96
1627,00;23,98
1624,00;23,96
1621,00;23,96
1618,00;23,94
1615,00;24,03
1612,00;23,98
1609,00;24,01
1606,00;24,01
1603,00;24,05
1600,00;24,06
1597,00;24,10
1594,00;24,12
1591,00;24,15
1588,00;24,16
1585,00;24,18
1582,00;24,21
1579,00;24,27
1576,00;24,33
1573,00;24,36
1570,00;24,36
1567,00;24,37
1564,00;24,42
1561,00;24,42
1558,00;24,42
1555,00;24,41
1552,00;24,50
1549,00;24,48
1546,00;24,54
1543,00;24,60
1540,00;24,57
1537,00;24,67
1534,00;24,61
1531,00;24,60
1528,00;24,67
1525,00;24,68
1522,00;24,69
1519,00;24,73
1516,00;24,68
1513,00;24,66
1510,00;24,81
1507,00;24,75
1504,00;24,76
1501,00;24,76
1498,00;24,73
1495,00;24,73
1492,00;24,78
1489,00;24,77
1486,00;24,68
1483,00;24,72
1480,00;24,71
1477,00;24,71
1474,00;24,67
1471,00;24,53
1468,00;24,49
1465,00;24,43
1462,00;24,40
1459,00;24,41
1456,00;24,21
1453,00;24,24
1450,00;24,21
1447,00;24,15
1444,00;24,14
1441,00;24,15
1438,00;24,07
1435,00;24,04
1432,00;24,11
1429,00;24,09
1426,00;24,12
1423,00;24,14
1420,00;24,12
1417,00;24,14
1414,00;24,16
1411,00;24,22
1408,00;24,28
1405,00;24,33
1402,00;24,35
1399,00;24,44
1396,00;24,43
1393,00;24,43
1390,00;24,50
1387,00;24,53
1384,00;24,52
1381,00;24,53
1378,00;24,54
1375,00;24,59
1372,00;24,55
1369,00;24,61
1366,00;24,62
1363,00;24,65
1360,00;24,59
1357,00;24,63
1354,00;24,64
1351,00;24,66
1348,00;24,66
1345,00;24,68
1342,00;24,72
1339,00;24,70
1336,00;24,66
1333,00;24,69
1330,00;24,70
1327,00;24,69
1324,00;24,68
1321,00;24,68
1318,00;24,67
1315,00;24,65
1312,00;24,65
1309,00;24,64
1306,00;24,63
1303,00;24,63
1300,00;24,62
1297,00;24,61
1294,00;24,59
1291,00;24,58
1288,00;24,56
1285,00;24,54
1282,00;24,51
1279,00;24,47
1276,00;24,43
1273,00;24,39
1270,00;24,32
1267,00;24,23
1264,00;24,14
1261,00;24,05
1258,00;23,98
1255,00;23,94
1252,00;23,89
1249,00;23,82
1246,00;23,74
1243,00;23,66
1240,00;23,58
1237,00;23,50
1234,00;23,42
1231,00;23,34
1228,00;23,28
1225,00;23,21
1222,00;23,15
1219,00;23,11
1216,00;23,07
1213,00;23,03
1210,00;22,99
1207,00;22,94
1204,00;22,90
1201,00;22,86
1198,00;22,81
1195,00;22,78
1192,00;22,75
1189,00;22,71
1186,00;22,67
1183,00;22,64
1180,00;22,60
1177,00;22,56
1174,00;22,52
1171,00;22,48
1168,00;22,45
1165,00;22,43
1162,00;22,41
1159,00;22,38
1156,00;22,35
1153,00;22,32
1150,00;22,27
1147,00;22,25
1144,00;22,21
1141,00;22,17
1138,00;22,14
1135,00;22,12
1132,00;22,10
1129,00;22,09
1126,00;22,08
1123,00;22,08
1120,00;22,08
1117,00;22,08
1114,00;22,10
1111,00;22,12
1108,00;22,15
1105,00;22,18
1102,00;22,23
1099,00;22,28
1096,00;22,34
1093,00;22,38
1090,00;22,41
1087,00;22,44
1084,00;22,46
1081,00;22,49
1078,00;22,50
1075,00;22,52
1072,00;22,54
1069,00;22,54
1066,00;22,53
1063,00;22,54
1060,00;22,53
1057,00;22,54
1054,00;22,57
1051,00;22,59
1048,00;22,62
1045,00;22,64
1042,00;22,68
1039,00;22,73
1036,00;22,79
1033,00;22,88
1030,00;22,97
1027,00;23,07
1024,00;23,19
1021,00;23,29
1018,00;23,38
1015,00;23,48
1012,00;23,57
1009,00;23,62
1006,00;23,64
1003,00;23,67
1000,00;23,69
997,00;23,68
994,00;23,66
991,00;23,61
988,00;23,53
985,00;23,43
982,00;23,36
979,00;23,32
976,00;23,29
973,00;23,29
970,00;23,29
967,00;23,28
964,00;23,23
961,00;23,18
958,00;23,13
955,00;23,12
952,00;23,14
949,00;23,17
946,00;23,22
943,00;23,30
940,00;23,38
937,00;23,47
934,00;23,55
931,00;23,60
928,00;23,62
925,00;23,62
922,00;23,59
919,00;23,56
916,00;23,54
913,00;23,53
910,00;23,53
907,00;23,54
904,00;23,57
901,00;23,60
898,00;23,63
895,00;23,66
892,00;23,68
889,00;23,70
886,00;23,71
883,00;23,72
880,00;23,72
877,00;23,74
874,00;23,76
871,00;23,79
868,00;23,83
865,00;23,88
862,00;23,93
859,00;23,97
856,00;24,01
853,00;24,06
850,00;24,09
847,00;24,11
844,00;24,13
841,00;24,15
838,00;24,15
835,00;24,16
832,00;24,16
829,00;24,13
826,00;24,09
823,00;24,03
820,00;23,99
817,00;23,95
814,00;23,90
811,00;23,84
808,00;23,78
805,00;23,71
802,00;23,65
799,00;23,62
796,00;23,59
793,00;23,56
790,00;23,52
787,00;23,46
784,00;23,37
781,00;23,27
778,00;23,20
775,00;23,17
772,00;23,11
769,00;23,01
766,00;22,90
763,00;22,81
760,00;22,73
757,00;22,64
754,00;22,58
751,00;22,52
748,00;22,48
745,00;22,43
742,00;22,38
739,00;22,33
736,00;22,29
733,00;22,25
730,00;22,22
727,00;22,15
724,00;22,07
721,00;22,05
718,00;21,99
715,00;21,96
712,00;21,94
709,00;21,91
706,00;21,89
703,00;21,85
700,00;21,85
697,00;21,83
694,00;21,80
691,00;21,75
688,00;21,68
685,00;21,61
682,00;21,49
679,00;21,39
676,00;21,28
673,00;21,20
670,00;21,29
667,00;20,75
664,00;20,79
661,00;20,83
658,00;20,72
655,00;20,64
652,00;20,54
649,00;20,45
646,00;20,33
643,00;20,22
640,00;20,12
637,00;19,99
634,00;19,79
631,00;19,60
628,00;19,46
625,00;19,37
622,00;19,25
619,00;19,13
616,00;18,97
613,00;18,83
610,00;18,72
607,00;18,60
604,00;18,51
601,00;18,45
598,00;18,39
595,00;18,32
592,00;18,29
589,00;18,17
586,00;18,15
583,00;18,03
580,00;18,04
577,00;18,00
574,00;17,93
571,00;17,88
568,00;17,79
565,00;17,76
562,00;17,74
559,00;17,63
556,00;17,54
553,00;17,50
550,00;17,50
547,00;17,33
544,00;17,12
541,00;17,06
538,00;16,99
535,00;16,91
532,00;16,93
529,00;16,85
526,00;16,53
523,00;16,41
520,00;16,54
517,00;16,49
514,00;16,11
511,00;16,07
508,00;16,23
505,00;16,80
502,00;16,11
500,00;16,01