File: FTIR/LNB_28-10-2024/MoS2(1)-10H.csv
Criado como novo conjunto de dados;Amostra 008 por Analyst data segunda-feira, outubro 28 2024
cm-1;%T
4000,00;34,98
3997,00;34,98
3994,00;34,98
3991,00;34,98
3988,00;34,97
3985,00;34,98
3982,00;34,98
3979,00;34,98
3976,00;34,98
3973,00;34,98
3970,00;34,98
3967,00;34,97
3964,00;34,98
3961,00;34,98
3958,00;34,97
3955,00;34,98
3952,00;34,99
3949,00;34,97
3946,00;34,95
3943,00;34,94
3940,00;34,95
3937,00;34,97
3934,00;35,00
3931,00;34,96
3928,00;34,95
3925,00;34,96
3922,00;34,96
3919,00;34,95
3916,00;34,93
3913,00;34,95
3910,00;34,99
3907,00;35,01
3904,00;34,96
3901,00;34,87
3898,00;34,84
3895,00;34,94
3892,00;34,94
3889,00;34,98
3886,00;34,93
3883,00;34,99
3880,00;34,87
3877,00;34,96
3874,00;34,97
3871,00;34,95
3868,00;34,94
3865,00;34,92
3862,00;34,94
3859,00;34,97
3856,00;34,94
3853,00;35,01
3850,00;35,00
3847,00;34,95
3844,00;35,03
3841,00;35,03
3838,00;34,96
3835,00;34,97
3832,00;34,94
3829,00;35,03
3826,00;35,03
3823,00;35,04
3820,00;35,01
3817,00;34,97
3814,00;35,06
3811,00;35,05
3808,00;35,09
3805,00;35,15
3802,00;35,05
3799,00;35,10
3796,00;35,00
3793,00;35,08
3790,00;35,13
3787,00;35,17
3784,00;35,15
3781,00;35,14
3778,00;35,12
3775,00;35,14
3772,00;35,18
3769,00;35,16
3766,00;35,12
3763,00;35,16
3760,00;35,17
3757,00;35,15
3754,00;35,14
3751,00;35,19
3748,00;35,12
3745,00;34,98
3742,00;35,20
3739,00;35,15
3736,00;35,20
3733,00;35,07
3730,00;35,17
3727,00;35,22
3724,00;35,23
3721,00;35,19
3718,00;35,22
3715,00;35,26
3712,00;35,30
3709,00;35,22
3706,00;35,24
3703,00;35,28
3700,00;35,28
3697,00;35,29
3694,00;35,32
3691,00;35,29
3688,00;35,22
3685,00;35,25
3682,00;35,27
3679,00;35,31
3676,00;35,23
3673,00;35,18
3670,00;35,12
3667,00;35,17
3664,00;35,21
3661,00;35,26
3658,00;35,24
3655,00;35,21
3652,00;35,16
3649,00;35,10
3646,00;34,94
3643,00;35,03
3640,00;35,10
3637,00;35,12
3634,00;35,08
3631,00;35,02
3628,00;34,91
3625,00;34,89
3622,00;34,89
3619,00;34,83
3616,00;34,78
3613,00;34,70
3610,00;34,69
3607,00;34,66
3604,00;34,66
3601,00;34,67
3598,00;34,62
3595,00;34,54
3592,00;34,50
3589,00;34,47
3586,00;34,35
3583,00;34,34
3580,00;34,36
3577,00;34,34
3574,00;34,31
3571,00;34,29
3568,00;34,24
3565,00;34,06
3562,00;34,07
3559,00;34,08
3556,00;34,08
3553,00;34,06
3550,00;34,00
3547,00;33,97
3544,00;33,88
3541,00;33,86
3538,00;33,88
3535,00;33,83
3532,00;33,82
3529,00;33,79
3526,00;33,73
3523,00;33,67
3520,00;33,65
3517,00;33,65
3514,00;33,63
3511,00;33,61
3508,00;33,55
3505,00;33,54
3502,00;33,49
3499,00;33,46
3496,00;33,44
3493,00;33,41
3490,00;33,40
3487,00;33,37
3484,00;33,35
3481,00;33,31
3478,00;33,28
3475,00;33,27
3472,00;33,25
3469,00;33,23
3466,00;33,19
3463,00;33,17
3460,00;33,14
3457,00;33,12
3454,00;33,10
3451,00;33,08
3448,00;33,06
3445,00;33,01
3442,00;32,99
3439,00;32,98
3436,00;32,97
3433,00;32,95
3430,00;32,93
3427,00;32,90
3424,00;32,88
3421,00;32,86
3418,00;32,84
3415,00;32,83
3412,00;32,81
3409,00;32,80
3406,00;32,77
3403,00;32,77
3400,00;32,75
3397,00;32,72
3394,00;32,72
3391,00;32,69
3388,00;32,67
3385,00;32,67
3382,00;32,65
3379,00;32,64
3376,00;32,63
3373,00;32,62
3370,00;32,62
3367,00;32,60
3364,00;32,58
3361,00;32,57
3358,00;32,55
3355,00;32,55
3352,00;32,55
3349,00;32,54
3346,00;32,53
3343,00;32,53
3340,00;32,52
3337,00;32,51
3334,00;32,48
3331,00;32,48
3328,00;32,48
3325,00;32,47
3322,00;32,46
3319,00;32,45
3316,00;32,45
3313,00;32,44
3310,00;32,44
3307,00;32,44
3304,00;32,42
3301,00;32,41
3298,00;32,40
3295,00;32,40
3292,00;32,39
3289,00;32,36
3286,00;32,36
3283,00;32,35
3280,00;32,35
3277,00;32,35
3274,00;32,34
3271,00;32,33
3268,00;32,32
3265,00;32,31
3262,00;32,30
3259,00;32,29
3256,00;32,29
3253,00;32,27
3250,00;32,27
3247,00;32,27
3244,00;32,25
3241,00;32,24
3238,00;32,24
3235,00;32,24
3232,00;32,23
3229,00;32,22
3226,00;32,21
3223,00;32,21
3220,00;32,20
3217,00;32,20
3214,00;32,20
3211,00;32,19
3208,00;32,19
3205,00;32,19
3202,00;32,19
3199,00;32,19
3196,00;32,18
3193,00;32,19
3190,00;32,19
3187,00;32,19
3184,00;32,19
3181,00;32,19
3178,00;32,19
3175,00;32,19
3172,00;32,19
3169,00;32,20
3166,00;32,20
3163,00;32,20
3160,00;32,21
3157,00;32,21
3154,00;32,23
3151,00;32,23
3148,00;32,22
3145,00;32,22
3142,00;32,23
3139,00;32,24
3136,00;32,23
3133,00;32,24
3130,00;32,24
3127,00;32,24
3124,00;32,25
3121,00;32,27
3118,00;32,27
3115,00;32,26
3112,00;32,25
3109,00;32,27
3106,00;32,26
3103,00;32,27
3100,00;32,27
3097,00;32,26
3094,00;32,26
3091,00;32,27
3088,00;32,27
3085,00;32,28
3082,00;32,29
3079,00;32,28
3076,00;32,27
3073,00;32,26
3070,00;32,27
3067,00;32,28
3064,00;32,27
3061,00;32,27
3058,00;32,28
3055,00;32,28
3052,00;32,29
3049,00;32,30
3046,00;32,30
3043,00;32,31
3040,00;32,31
3037,00;32,31
3034,00;32,33
3031,00;32,32
3028,00;32,32
3025,00;32,33
3022,00;32,34
3019,00;32,35
3016,00;32,36
3013,00;32,37
3010,00;32,36
3007,00;32,36
3004,00;32,37
3001,00;32,38
2998,00;32,39
2995,00;32,39
2992,00;32,39
2989,00;32,38
2986,00;32,37
2983,00;32,38
2980,00;32,39
2977,00;32,38
2974,00;32,37
2971,00;32,36
2968,00;32,36
2965,00;32,34
2962,00;32,32
2959,00;32,29
2956,00;32,27
2953,00;32,25
2950,00;32,24
2947,00;32,25
2944,00;32,25
2941,00;32,25
2938,00;32,27
2935,00;32,28
2932,00;32,28
2929,00;32,26
2926,00;32,20
2923,00;32,12
2920,00;32,02
2917,00;31,95
2914,00;31,91
2911,00;31,90
2908,00;31,90
2905,00;31,94
2902,00;31,99
2899,00;32,06
2896,00;32,13
2893,00;32,17
2890,00;32,20
2887,00;32,23
2884,00;32,26
2881,00;32,28
2878,00;32,30
2875,00;32,34
2872,00;32,35
2869,00;32,35
2866,00;32,36
2863,00;32,37
2860,00;32,38
2857,00;32,38
2854,00;32,37
2851,00;32,35
2848,00;32,34
2845,00;32,33
2842,00;32,35
2839,00;32,39
2836,00;32,42
2833,00;32,45
2830,00;32,49
2827,00;32,52
2824,00;32,55
2821,00;32,57
2818,00;32,59
2815,00;32,61
2812,00;32,63
2809,00;32,65
2806,00;32,66
2803,00;32,67
2800,00;32,70
2797,00;32,71
2794,00;32,72
2791,00;32,74
2788,00;32,75
2785,00;32,75
2782,00;32,76
2779,00;32,77
2776,00;32,79
2773,00;32,80
2770,00;32,81
2767,00;32,82
2764,00;32,82
2761,00;32,84
2758,00;32,85
2755,00;32,86
2752,00;32,87
2749,00;32,88
2746,00;32,89
2743,00;32,89
2740,00;32,91
2737,00;32,91
2734,00;32,92
2731,00;32,93
2728,00;32,94
2725,00;32,96
2722,00;32,96
2719,00;32,96
2716,00;32,97
2713,00;32,98
2710,00;32,99
2707,00;33,00
2704,00;33,01
2701,00;33,01
2698,00;33,02
2695,00;33,03
2692,00;33,04
2689,00;33,04
2686,00;33,05
2683,00;33,06
2680,00;33,07
2677,00;33,08
2674,00;33,09
2671,00;33,09
2668,00;33,10
2665,00;33,10
2662,00;33,11
2659,00;33,13
2656,00;33,15
2653,00;33,17
2650,00;33,19
2647,00;33,21
2644,00;33,23
2641,00;33,26
2638,00;33,28
2635,00;33,29
2632,00;33,31
2629,00;33,33
2626,00;33,34
2623,00;33,36
2620,00;33,37
2617,00;33,38
2614,00;33,39
2611,00;33,41
2608,00;33,42
2605,00;33,43
2602,00;33,44
2599,00;33,46
2596,00;33,47
2593,00;33,47
2590,00;33,48
2587,00;33,49
2584,00;33,50
2581,00;33,51
2578,00;33,52
2575,00;33,52
2572,00;33,52
2569,00;33,54
2566,00;33,55
2563,00;33,55
2560,00;33,56
2557,00;33,56
2554,00;33,57
2551,00;33,57
2548,00;33,58
2545,00;33,58
2542,00;33,58
2539,00;33,59
2536,00;33,60
2533,00;33,60
2530,00;33,60
2527,00;33,60
2524,00;33,60
2521,00;33,61
2518,00;33,61
2515,00;33,61
2512,00;33,62
2509,00;33,62
2506,00;33,62
2503,00;33,62
2500,00;33,62
2497,00;33,62
2494,00;33,63
2491,00;33,64
2488,00;33,64
2485,00;33,64
2482,00;33,64
2479,00;33,64
2476,00;33,64
2473,00;33,64
2470,00;33,65
2467,00;33,65
2464,00;33,65
2461,00;33,66
2458,00;33,65
2455,00;33,65
2452,00;33,66
2449,00;33,66
2446,00;33,66
2443,00;33,67
2440,00;33,67
2437,00;33,68
2434,00;33,68
2431,00;33,69
2428,00;33,69
2425,00;33,69
2422,00;33,69
2419,00;33,69
2416,00;33,70
2413,00;33,70
2410,00;33,69
2407,00;33,70
2404,00;33,70
2401,00;33,70
2398,00;33,70
2395,00;33,70
2392,00;33,69
2389,00;33,67
2386,00;33,67
2383,00;33,73
2380,00;33,78
2377,00;33,74
2374,00;33,69
2371,00;33,69
2368,00;33,71
2365,00;33,71
2362,00;33,68
2359,00;33,66
2356,00;33,66
2353,00;33,74
2350,00;33,64
2347,00;33,83
2344,00;33,79
2341,00;33,66
2338,00;33,58
2335,00;33,55
2332,00;33,53
2329,00;33,49
2326,00;33,50
2323,00;33,53
2320,00;33,52
2317,00;33,56
2314,00;33,62
2311,00;33,64
2308,00;33,67
2305,00;33,68
2302,00;33,70
2299,00;33,71
2296,00;33,74
2293,00;33,74
2290,00;33,74
2287,00;33,75
2284,00;33,77
2281,00;33,81
2278,00;33,84
2275,00;33,85
2272,00;33,86
2269,00;33,86
2266,00;33,87
2263,00;33,86
2260,00;33,86
2257,00;33,86
2254,00;33,88
2251,00;33,88
2248,00;33,89
2245,00;33,90
2242,00;33,89
2239,00;33,88
2236,00;33,89
2233,00;33,91
2230,00;33,92
2227,00;33,91
2224,00;33,91
2221,00;33,92
2218,00;33,93
2215,00;33,93
2212,00;33,93
2209,00;33,94
2206,00;33,94
2203,00;33,95
2200,00;33,96
2197,00;33,94
2194,00;33,94
2191,00;33,95
2188,00;33,95
2185,00;33,95
2182,00;33,98
2179,00;34,01
2176,00;34,00
2173,00;34,00
2170,00;33,96
2167,00;33,96
2164,00;33,99
2161,00;34,00
2158,00;34,14
2155,00;34,12
2152,00;34,09
2149,00;34,07
2146,00;34,06
2143,00;34,05
2140,00;34,06
2137,00;34,07
2134,00;34,07
2131,00;34,05
2128,00;34,04
2125,00;34,04
2122,00;34,02
2119,00;34,02
2116,00;34,01
2113,00;34,01
2110,00;34,01
2107,00;34,02
2104,00;34,03
2101,00;34,05
2098,00;34,06
2095,00;34,08
2092,00;34,07
2089,00;34,06
2086,00;34,07
2083,00;34,08
2080,00;34,09
2077,00;34,12
2074,00;34,13
2071,00;34,13
2068,00;34,14
2065,00;34,15
2062,00;34,16
2059,00;34,18
2056,00;34,18
2053,00;34,20
2050,00;34,22
2047,00;34,23
2044,00;34,23
2041,00;34,25
2038,00;34,26
2035,00;34,29
2032,00;34,30
2029,00;34,31
2026,00;34,33
2023,00;34,36
2020,00;34,35
2017,00;34,35
2014,00;34,36
2011,00;34,35
2008,00;34,35
2005,00;34,37
2002,00;34,37
1999,00;34,36
1996,00;34,36
1993,00;34,37
1990,00;34,35
1987,00;34,36
1984,00;34,37
1981,00;34,37
1978,00;34,45
1975,00;34,51
1972,00;34,51
1969,00;34,50
1966,00;34,48
1963,00;34,51
1960,00;34,53
1957,00;34,52
1954,00;34,52
1951,00;34,52
1948,00;34,52
1945,00;34,52
1942,00;34,52
1939,00;34,52
1936,00;34,53
1933,00;34,54
1930,00;34,55
1927,00;34,54
1924,00;34,54
1921,00;34,53
1918,00;34,55
1915,00;34,56
1912,00;34,58
1909,00;34,58
1906,00;34,58
1903,00;34,60
1900,00;34,60
1897,00;34,61
1894,00;34,62
1891,00;34,63
1888,00;34,63
1885,00;34,64
1882,00;34,66
1879,00;34,67
1876,00;34,68
1873,00;34,71
1870,00;34,71
1867,00;34,68
1864,00;34,68
1861,00;34,72
1858,00;34,74
1855,00;34,75
1852,00;34,76
1849,00;34,77
1846,00;34,75
1843,00;34,78
1840,00;34,77
1837,00;34,79
1834,00;34,80
1831,00;34,80
1828,00;34,80
1825,00;34,80
1822,00;34,82
1819,00;34,84
1816,00;34,84
1813,00;34,85
1810,00;34,83
1807,00;34,83
1804,00;34,86
1801,00;34,85
1798,00;34,84
1795,00;34,84
1792,00;34,86
1789,00;34,86
1786,00;34,87
1783,00;34,89
1780,00;34,86
1777,00;34,87
1774,00;34,84
1771,00;34,85
1768,00;34,81
1765,00;34,84
1762,00;34,82
1759,00;34,81
1756,00;34,78
1753,00;34,77
1750,00;34,74
1747,00;34,63
1744,00;34,63
1741,00;34,61
1738,00;34,61
1735,00;34,55
1732,00;34,55
1729,00;34,43
1726,00;34,43
1723,00;34,39
1720,00;34,31
1717,00;34,27
1714,00;34,15
1711,00;34,10
1708,00;34,08
1705,00;33,98
1702,00;33,90
1699,00;33,94
1696,00;33,75
1693,00;33,80
1690,00;33,70
1687,00;33,59
1684,00;33,55
1681,00;33,43
1678,00;33,39
1675,00;33,38
1672,00;33,31
1669,00;33,21
1666,00;33,20
1663,00;33,18
1660,00;33,13
1657,00;33,09
1654,00;33,03
1651,00;33,03
1648,00;32,89
1645,00;32,83
1642,00;32,85
1639,00;32,83
1636,00;32,75
1633,00;32,73
1630,00;32,73
1627,00;32,71
1624,00;32,69
1621,00;32,69
1618,00;32,71
1615,00;32,77
1612,00;32,78
1609,00;32,83
1606,00;32,88
1603,00;32,95
1600,00;33,01
1597,00;33,08
1594,00;33,13
1591,00;33,20
1588,00;33,26
1585,00;33,31
1582,00;33,36
1579,00;33,41
1576,00;33,46
1573,00;33,51
1570,00;33,55
1567,00;33,59
1564,00;33,64
1561,00;33,68
1558,00;33,70
1555,00;33,73
1552,00;33,83
1549,00;33,84
1546,00;33,91
1543,00;33,91
1540,00;33,91
1537,00;34,02
1534,00;34,04
1531,00;34,08
1528,00;34,14
1525,00;34,16
1522,00;34,17
1519,00;34,22
1516,00;34,21
1513,00;34,29
1510,00;34,34
1507,00;34,26
1504,00;34,36
1501,00;34,39
1498,00;34,40
1495,00;34,42
1492,00;34,44
1489,00;34,38
1486,00;34,36
1483,00;34,41
1480,00;34,40
1477,00;34,38
1474,00;34,31
1471,00;34,17
1468,00;34,11
1465,00;34,00
1462,00;33,91
1459,00;33,85
1456,00;33,73
1453,00;33,71
1450,00;33,70
1447,00;33,66
1444,00;33,66
1441,00;33,66
1438,00;33,65
1435,00;33,63
1432,00;33,62
1429,00;33,63
1426,00;33,66
1423,00;33,65
1420,00;33,69
1417,00;33,69
1414,00;33,73
1411,00;33,79
1408,00;33,85
1405,00;33,88
1402,00;33,93
1399,00;33,98
1396,00;33,98
1393,00;34,02
1390,00;34,05
1387,00;34,06
1384,00;34,05
1381,00;34,04
1378,00;34,01
1375,00;33,99
1372,00;34,01
1369,00;34,07
1366,00;34,10
1363,00;34,08
1360,00;34,07
1357,00;34,11
1354,00;34,14
1351,00;34,18
1348,00;34,23
1345,00;34,29
1342,00;34,35
1339,00;34,35
1336,00;34,40
1333,00;34,47
1330,00;34,51
1327,00;34,53
1324,00;34,55
1321,00;34,57
1318,00;34,57
1315,00;34,59
1312,00;34,60
1309,00;34,62
1306,00;34,63
1303,00;34,65
1300,00;34,66
1297,00;34,67
1294,00;34,67
1291,00;34,66
1288,00;34,65
1285,00;34,62
1282,00;34,59
1279,00;34,54
1276,00;34,47
1273,00;34,38
1270,00;34,25
1267,00;34,09
1264,00;33,91
1261,00;33,76
1258,00;33,65
1255,00;33,55
1252,00;33,41
1249,00;33,24
1246,00;33,04
1243,00;32,84
1240,00;32,63
1237,00;32,42
1234,00;32,21
1231,00;32,01
1228,00;31,82
1225,00;31,63
1222,00;31,47
1219,00;31,31
1216,00;31,16
1213,00;31,03
1210,00;30,90
1207,00;30,77
1204,00;30,66
1201,00;30,55
1198,00;30,46
1195,00;30,37
1192,00;30,30
1189,00;30,24
1186,00;30,17
1183,00;30,10
1180,00;30,03
1177,00;29,96
1174,00;29,87
1171,00;29,77
1168,00;29,67
1165,00;29,56
1162,00;29,46
1159,00;29,35
1156,00;29,23
1153,00;29,10
1150,00;28,96
1147,00;28,83
1144,00;28,70
1141,00;28,59
1138,00;28,48
1135,00;28,37
1132,00;28,26
1129,00;28,15
1126,00;28,07
1123,00;28,01
1120,00;27,96
1117,00;27,94
1114,00;27,94
1111,00;27,98
1108,00;28,02
1105,00;28,08
1102,00;28,13
1099,00;28,20
1096,00;28,26
1093,00;28,32
1090,00;28,37
1087,00;28,40
1084,00;28,45
1081,00;28,48
1078,00;28,51
1075,00;28,54
1072,00;28,56
1069,00;28,58
1066,00;28,61
1063,00;28,64
1060,00;28,69
1057,00;28,75
1054,00;28,82
1051,00;28,86
1048,00;28,88
1045,00;28,96
1042,00;29,10
1039,00;29,28
1036,00;29,49
1033,00;29,70
1030,00;29,91
1027,00;30,12
1024,00;30,31
1021,00;30,47
1018,00;30,59
1015,00;30,70
1012,00;30,77
1009,00;30,82
1006,00;30,86
1003,00;30,89
1000,00;30,91
997,00;30,92
994,00;30,91
991,00;30,90
988,00;30,88
985,00;30,80
982,00;30,72
979,00;30,64
976,00;30,58
973,00;30,54
970,00;30,52
967,00;30,52
964,00;30,50
961,00;30,48
958,00;30,45
955,00;30,42
952,00;30,41
949,00;30,39
946,00;30,38
943,00;30,41
940,00;30,46
937,00;30,55
934,00;30,66
931,00;30,79
928,00;30,91
925,00;31,02
922,00;31,09
919,00;31,14
916,00;31,17
913,00;31,20
910,00;31,22
907,00;31,24
904,00;31,26
901,00;31,30
898,00;31,33
895,00;31,35
892,00;31,37
889,00;31,39
886,00;31,40
883,00;31,39
880,00;31,38
877,00;31,38
874,00;31,42
871,00;31,46
868,00;31,51
865,00;31,58
862,00;31,65
859,00;31,70
856,00;31,76
853,00;31,82
850,00;31,85
847,00;31,87
844,00;31,89
841,00;31,90
838,00;31,90
835,00;31,89
832,00;31,86
829,00;31,80
826,00;31,72
823,00;31,61
820,00;31,48
817,00;31,35
814,00;31,20
811,00;31,00
808,00;30,81
805,00;30,58
802,00;30,36
799,00;30,12
796,00;29,90
793,00;29,63
790,00;29,32
787,00;28,98
784,00;28,62
781,00;28,24
778,00;27,85
775,00;27,53
772,00;27,19
769,00;26,85
766,00;26,50
763,00;26,17
760,00;25,86
757,00;25,55
754,00;25,25
751,00;24,98
748,00;24,74
745,00;24,50
742,00;24,27
739,00;24,03
736,00;23,82
733,00;23,59
730,00;23,35
727,00;23,13
724,00;22,92
721,00;22,69
718,00;22,48
715,00;22,29
712,00;22,12
709,00;21,94
706,00;21,72
703,00;21,53
700,00;21,36
697,00;21,19
694,00;21,00
691,00;20,82
688,00;20,63
685,00;20,42
682,00;20,20
679,00;19,96
676,00;19,71
673,00;19,46
670,00;19,20
667,00;18,64
664,00;18,64
661,00;18,44
658,00;18,17
655,00;17,90
652,00;17,63
649,00;17,35
646,00;17,07
643,00;16,80
640,00;16,52
637,00;16,29
634,00;16,05
631,00;15,79
628,00;15,57
625,00;15,37
622,00;15,19
619,00;14,99
616,00;14,84
613,00;14,71
610,00;14,56
607,00;14,42
604,00;14,33
601,00;14,16
598,00;14,08
595,00;13,94
592,00;13,82
589,00;13,76
586,00;13,69
583,00;13,62
580,00;13,49
577,00;13,40
574,00;13,28
571,00;13,19
568,00;13,13
565,00;13,05
562,00;13,04
559,00;13,03
556,00;13,05
553,00;13,06
550,00;12,89
547,00;12,94
544,00;12,88
541,00;12,77
538,00;12,69
535,00;12,77
532,00;12,61
529,00;12,51
526,00;12,45
523,00;12,14
520,00;11,95
517,00;12,15
514,00;11,95
511,00;11,23
508,00;10,90
505,00;10,88
502,00;11,60
500,00;11,16