File: FTIR/LNB_28-10-2024/MoS2(2)-5H.csv
Criado como novo conjunto de dados;Amostra 012 por Analyst data segunda-feira, outubro 28 2024
cm-1;%T
4000,00;29,31
3997,00;29,32
3994,00;29,33
3991,00;29,33
3988,00;29,32
3985,00;29,32
3982,00;29,33
3979,00;29,34
3976,00;29,35
3973,00;29,36
3970,00;29,35
3967,00;29,33
3964,00;29,36
3961,00;29,37
3958,00;29,36
3955,00;29,37
3952,00;29,44
3949,00;29,47
3946,00;29,49
3943,00;29,43
3940,00;29,43
3937,00;29,38
3934,00;29,52
3931,00;29,50
3928,00;29,52
3925,00;29,51
3922,00;29,59
3919,00;29,57
3916,00;29,45
3913,00;29,38
3910,00;29,40
3907,00;29,71
3904,00;29,92
3901,00;29,88
3898,00;29,56
3895,00;29,62
3892,00;29,58
3889,00;29,81
3886,00;29,58
3883,00;29,91
3880,00;29,57
3877,00;29,76
3874,00;29,78
3871,00;29,96
3868,00;29,96
3865,00;29,76
3862,00;29,77
3859,00;29,78
3856,00;30,21
3853,00;29,98
3850,00;30,03
3847,00;29,60
3844,00;29,79
3841,00;30,20
3838,00;30,06
3835,00;30,04
3832,00;29,71
3829,00;29,77
3826,00;29,76
3823,00;30,12
3820,00;30,10
3817,00;29,90
3814,00;29,75
3811,00;29,64
3808,00;29,75
3805,00;30,12
3802,00;29,90
3799,00;30,15
3796,00;29,66
3793,00;29,61
3790,00;29,53
3787,00;29,66
3784,00;29,71
3781,00;29,80
3778,00;29,70
3775,00;29,63
3772,00;29,81
3769,00;29,86
3766,00;29,79
3763,00;29,87
3760,00;29,90
3757,00;30,05
3754,00;30,30
3751,00;30,45
3748,00;30,60
3745,00;30,05
3742,00;30,33
3739,00;30,22
3736,00;30,51
3733,00;30,26
3730,00;30,03
3727,00;29,92
3724,00;30,06
3721,00;29,93
3718,00;29,83
3715,00;30,07
3712,00;30,22
3709,00;30,05
3706,00;29,86
3703,00;29,85
3700,00;29,84
3697,00;29,75
3694,00;29,98
3691,00;30,32
3688,00;30,05
3685,00;29,90
3682,00;29,80
3679,00;30,23
3676,00;30,34
3673,00;30,53
3670,00;29,96
3667,00;29,93
3664,00;29,60
3661,00;29,68
3658,00;29,85
3655,00;29,89
3652,00;30,29
3649,00;30,42
3646,00;30,04
3643,00;29,63
3640,00;29,57
3637,00;29,62
3634,00;29,69
3631,00;30,05
3628,00;29,72
3625,00;29,61
3622,00;29,65
3619,00;29,72
3616,00;29,81
3613,00;29,63
3610,00;29,59
3607,00;29,36
3604,00;29,31
3601,00;29,34
3598,00;29,39
3595,00;29,32
3592,00;29,31
3589,00;29,39
3586,00;29,26
3583,00;29,07
3580,00;28,99
3577,00;28,97
3574,00;28,94
3571,00;29,10
3568,00;29,30
3565,00;29,15
3562,00;28,92
3559,00;28,79
3556,00;28,79
3553,00;28,81
3550,00;28,84
3547,00;28,86
3544,00;28,76
3541,00;28,63
3538,00;28,61
3535,00;28,58
3532,00;28,58
3529,00;28,63
3526,00;28,65
3523,00;28,55
3520,00;28,47
3517,00;28,42
3514,00;28,41
3511,00;28,43
3508,00;28,41
3505,00;28,44
3502,00;28,40
3499,00;28,33
3496,00;28,29
3493,00;28,26
3490,00;28,24
3487,00;28,24
3484,00;28,23
3481,00;28,22
3478,00;28,16
3475,00;28,12
3472,00;28,12
3469,00;28,12
3466,00;28,09
3463,00;28,07
3460,00;28,05
3457,00;28,00
3454,00;27,98
3451,00;27,99
3448,00;28,02
3445,00;27,99
3442,00;27,93
3439,00;27,93
3436,00;27,92
3433,00;27,89
3430,00;27,88
3427,00;27,85
3424,00;27,85
3421,00;27,86
3418,00;27,82
3415,00;27,80
3412,00;27,79
3409,00;27,77
3406,00;27,75
3403,00;27,77
3400,00;27,76
3397,00;27,74
3394,00;27,75
3391,00;27,72
3388,00;27,67
3385,00;27,67
3382,00;27,66
3379,00;27,65
3376,00;27,64
3373,00;27,63
3370,00;27,66
3367,00;27,64
3364,00;27,61
3361,00;27,60
3358,00;27,58
3355,00;27,56
3352,00;27,57
3349,00;27,54
3346,00;27,53
3343,00;27,53
3340,00;27,53
3337,00;27,51
3334,00;27,48
3331,00;27,46
3328,00;27,47
3325,00;27,46
3322,00;27,42
3319,00;27,40
3316,00;27,39
3313,00;27,39
3310,00;27,41
3307,00;27,40
3304,00;27,36
3301,00;27,33
3298,00;27,33
3295,00;27,33
3292,00;27,32
3289,00;27,27
3286,00;27,25
3283,00;27,24
3280,00;27,23
3277,00;27,23
3274,00;27,23
3271,00;27,21
3268,00;27,17
3265,00;27,15
3262,00;27,14
3259,00;27,13
3256,00;27,14
3253,00;27,11
3250,00;27,10
3247,00;27,11
3244,00;27,08
3241,00;27,06
3238,00;27,06
3235,00;27,07
3232,00;27,06
3229,00;27,03
3226,00;27,02
3223,00;27,02
3220,00;27,02
3217,00;27,02
3214,00;27,01
3211,00;27,00
3208,00;27,00
3205,00;26,99
3202,00;26,99
3199,00;27,00
3196,00;27,00
3193,00;26,99
3190,00;26,99
3187,00;27,00
3184,00;27,00
3181,00;27,01
3178,00;27,01
3175,00;27,01
3172,00;27,01
3169,00;27,01
3166,00;27,02
3163,00;27,02
3160,00;27,03
3157,00;27,04
3154,00;27,07
3151,00;27,07
3148,00;27,05
3145,00;27,05
3142,00;27,07
3139,00;27,09
3136,00;27,08
3133,00;27,09
3130,00;27,10
3127,00;27,09
3124,00;27,11
3121,00;27,14
3118,00;27,16
3115,00;27,14
3112,00;27,12
3109,00;27,13
3106,00;27,11
3103,00;27,12
3100,00;27,13
3097,00;27,11
3094,00;27,11
3091,00;27,12
3088,00;27,11
3085,00;27,12
3082,00;27,13
3079,00;27,13
3076,00;27,10
3073,00;27,08
3070,00;27,10
3067,00;27,12
3064,00;27,10
3061,00;27,08
3058,00;27,09
3055,00;27,10
3052,00;27,10
3049,00;27,10
3046,00;27,11
3043,00;27,12
3040,00;27,11
3037,00;27,12
3034,00;27,15
3031,00;27,14
3028,00;27,12
3025,00;27,14
3022,00;27,14
3019,00;27,16
3016,00;27,18
3013,00;27,19
3010,00;27,18
3007,00;27,16
3004,00;27,17
3001,00;27,18
2998,00;27,20
2995,00;27,21
2992,00;27,21
2989,00;27,20
2986,00;27,21
2983,00;27,22
2980,00;27,24
2977,00;27,24
2974,00;27,24
2971,00;27,23
2968,00;27,23
2965,00;27,22
2962,00;27,21
2959,00;27,18
2956,00;27,17
2953,00;27,17
2950,00;27,16
2947,00;27,18
2944,00;27,18
2941,00;27,18
2938,00;27,18
2935,00;27,19
2932,00;27,21
2929,00;27,20
2926,00;27,15
2923,00;27,09
2920,00;27,03
2917,00;26,99
2914,00;26,96
2911,00;26,93
2908,00;26,92
2905,00;26,94
2902,00;26,97
2899,00;27,01
2896,00;27,06
2893,00;27,08
2890,00;27,10
2887,00;27,12
2884,00;27,14
2881,00;27,16
2878,00;27,18
2875,00;27,21
2872,00;27,21
2869,00;27,20
2866,00;27,21
2863,00;27,22
2860,00;27,23
2857,00;27,22
2854,00;27,20
2851,00;27,19
2848,00;27,18
2845,00;27,17
2842,00;27,18
2839,00;27,20
2836,00;27,22
2833,00;27,25
2830,00;27,27
2827,00;27,29
2824,00;27,31
2821,00;27,32
2818,00;27,34
2815,00;27,35
2812,00;27,37
2809,00;27,38
2806,00;27,38
2803,00;27,39
2800,00;27,41
2797,00;27,42
2794,00;27,43
2791,00;27,45
2788,00;27,45
2785,00;27,45
2782,00;27,46
2779,00;27,47
2776,00;27,48
2773,00;27,49
2770,00;27,49
2767,00;27,50
2764,00;27,50
2761,00;27,51
2758,00;27,52
2755,00;27,52
2752,00;27,53
2749,00;27,55
2746,00;27,55
2743,00;27,55
2740,00;27,56
2737,00;27,56
2734,00;27,56
2731,00;27,57
2728,00;27,58
2725,00;27,59
2722,00;27,60
2719,00;27,60
2716,00;27,60
2713,00;27,60
2710,00;27,61
2707,00;27,61
2704,00;27,62
2701,00;27,62
2698,00;27,63
2695,00;27,63
2692,00;27,64
2689,00;27,64
2686,00;27,64
2683,00;27,65
2680,00;27,66
2677,00;27,66
2674,00;27,66
2671,00;27,67
2668,00;27,67
2665,00;27,68
2662,00;27,69
2659,00;27,70
2656,00;27,71
2653,00;27,73
2650,00;27,75
2647,00;27,76
2644,00;27,77
2641,00;27,79
2638,00;27,80
2635,00;27,81
2632,00;27,82
2629,00;27,83
2626,00;27,84
2623,00;27,85
2620,00;27,85
2617,00;27,87
2614,00;27,87
2611,00;27,88
2608,00;27,88
2605,00;27,89
2602,00;27,89
2599,00;27,90
2596,00;27,91
2593,00;27,91
2590,00;27,91
2587,00;27,91
2584,00;27,91
2581,00;27,92
2578,00;27,92
2575,00;27,92
2572,00;27,93
2569,00;27,93
2566,00;27,93
2563,00;27,93
2560,00;27,93
2557,00;27,94
2554,00;27,93
2551,00;27,94
2548,00;27,93
2545,00;27,94
2542,00;27,95
2539,00;27,94
2536,00;27,94
2533,00;27,94
2530,00;27,94
2527,00;27,95
2524,00;27,94
2521,00;27,94
2518,00;27,93
2515,00;27,93
2512,00;27,94
2509,00;27,93
2506,00;27,93
2503,00;27,93
2500,00;27,93
2497,00;27,93
2494,00;27,93
2491,00;27,93
2488,00;27,93
2485,00;27,93
2482,00;27,92
2479,00;27,92
2476,00;27,92
2473,00;27,92
2470,00;27,92
2467,00;27,91
2464,00;27,92
2461,00;27,92
2458,00;27,92
2455,00;27,92
2452,00;27,92
2449,00;27,92
2446,00;27,92
2443,00;27,92
2440,00;27,92
2437,00;27,92
2434,00;27,92
2431,00;27,91
2428,00;27,91
2425,00;27,91
2422,00;27,92
2419,00;27,91
2416,00;27,91
2413,00;27,91
2410,00;27,91
2407,00;27,91
2404,00;27,90
2401,00;27,90
2398,00;27,89
2395,00;27,89
2392,00;27,89
2389,00;27,90
2386,00;27,92
2383,00;27,97
2380,00;28,06
2377,00;28,16
2374,00;28,22
2371,00;28,23
2368,00;28,21
2365,00;28,17
2362,00;28,09
2359,00;27,99
2356,00;27,88
2353,00;27,69
2350,00;27,77
2347,00;28,01
2344,00;28,02
2341,00;28,16
2338,00;27,96
2335,00;27,89
2332,00;27,87
2329,00;27,83
2326,00;27,87
2323,00;27,86
2320,00;27,85
2317,00;27,84
2314,00;27,82
2311,00;27,85
2308,00;27,88
2305,00;27,89
2302,00;27,89
2299,00;27,91
2296,00;27,92
2293,00;27,93
2290,00;27,94
2287,00;27,93
2284,00;27,95
2281,00;27,95
2278,00;27,95
2275,00;27,96
2272,00;27,98
2269,00;27,98
2266,00;27,96
2263,00;27,98
2260,00;27,97
2257,00;27,98
2254,00;27,99
2251,00;27,98
2248,00;27,98
2245,00;27,98
2242,00;27,99
2239,00;27,99
2236,00;27,99
2233,00;27,99
2230,00;27,98
2227,00;27,99
2224,00;27,99
2221,00;27,98
2218,00;28,00
2215,00;28,01
2212,00;28,01
2209,00;28,00
2206,00;28,00
2203,00;28,01
2200,00;27,99
2197,00;28,01
2194,00;28,02
2191,00;28,00
2188,00;28,01
2185,00;28,02
2182,00;28,03
2179,00;28,03
2176,00;28,04
2173,00;28,02
2170,00;28,01
2167,00;28,04
2164,00;28,05
2161,00;28,07
2158,00;28,06
2155,00;28,00
2152,00;28,01
2149,00;28,00
2146,00;27,99
2143,00;27,98
2140,00;27,97
2137,00;27,96
2134,00;27,95
2131,00;27,93
2128,00;27,94
2125,00;27,93
2122,00;27,93
2119,00;27,92
2116,00;27,92
2113,00;27,92
2110,00;27,93
2107,00;27,93
2104,00;27,94
2101,00;27,95
2098,00;27,96
2095,00;27,95
2092,00;27,94
2089,00;27,95
2086,00;27,97
2083,00;27,98
2080,00;27,98
2077,00;27,99
2074,00;28,00
2071,00;27,99
2068,00;28,01
2065,00;28,03
2062,00;28,03
2059,00;28,03
2056,00;28,05
2053,00;28,07
2050,00;28,11
2047,00;28,12
2044,00;28,12
2041,00;28,12
2038,00;28,15
2035,00;28,18
2032,00;28,19
2029,00;28,18
2026,00;28,13
2023,00;28,14
2020,00;28,14
2017,00;28,13
2014,00;28,16
2011,00;28,13
2008,00;28,12
2005,00;28,10
2002,00;28,07
1999,00;28,07
1996,00;28,10
1993,00;28,10
1990,00;28,11
1987,00;28,12
1984,00;28,12
1981,00;28,18
1978,00;28,22
1975,00;28,14
1972,00;28,14
1969,00;28,16
1966,00;28,13
1963,00;28,09
1960,00;28,10
1957,00;28,09
1954,00;28,07
1951,00;28,05
1948,00;28,07
1945,00;28,10
1942,00;28,06
1939,00;28,02
1936,00;28,03
1933,00;28,03
1930,00;28,03
1927,00;28,02
1924,00;28,04
1921,00;28,02
1918,00;28,00
1915,00;28,01
1912,00;28,01
1909,00;28,03
1906,00;28,00
1903,00;27,99
1900,00;27,99
1897,00;28,01
1894,00;28,01
1891,00;28,01
1888,00;27,98
1885,00;27,99
1882,00;27,99
1879,00;27,98
1876,00;27,98
1873,00;28,01
1870,00;28,03
1867,00;28,00
1864,00;27,96
1861,00;27,97
1858,00;27,98
1855,00;27,97
1852,00;27,97
1849,00;28,01
1846,00;27,97
1843,00;27,95
1840,00;27,95
1837,00;27,97
1834,00;27,97
1831,00;27,99
1828,00;27,99
1825,00;27,94
1822,00;27,94
1819,00;27,93
1816,00;27,90
1813,00;27,95
1810,00;27,94
1807,00;27,91
1804,00;27,94
1801,00;27,93
1798,00;27,93
1795,00;27,93
1792,00;27,89
1789,00;27,88
1786,00;27,87
1783,00;27,89
1780,00;27,89
1777,00;27,90
1774,00;27,88
1771,00;27,89
1768,00;27,79
1765,00;27,83
1762,00;27,81
1759,00;27,82
1756,00;27,79
1753,00;27,79
1750,00;27,83
1747,00;27,78
1744,00;27,76
1741,00;27,68
1738,00;27,70
1735,00;27,59
1732,00;27,67
1729,00;27,55
1726,00;27,54
1723,00;27,54
1720,00;27,49
1717,00;27,51
1714,00;27,44
1711,00;27,39
1708,00;27,41
1705,00;27,40
1702,00;27,24
1699,00;27,29
1696,00;27,16
1693,00;27,30
1690,00;27,26
1687,00;27,19
1684,00;27,20
1681,00;27,14
1678,00;27,05
1675,00;26,99
1672,00;27,03
1669,00;26,92
1666,00;26,90
1663,00;26,88
1660,00;26,84
1657,00;26,85
1654,00;26,77
1651,00;26,94
1648,00;26,83
1645,00;26,70
1642,00;26,72
1639,00;26,77
1636,00;26,70
1633,00;26,68
1630,00;26,68
1627,00;26,69
1624,00;26,66
1621,00;26,66
1618,00;26,62
1615,00;26,69
1612,00;26,67
1609,00;26,70
1606,00;26,69
1603,00;26,74
1600,00;26,74
1597,00;26,77
1594,00;26,80
1591,00;26,82
1588,00;26,84
1585,00;26,86
1582,00;26,89
1579,00;26,94
1576,00;26,97
1573,00;27,01
1570,00;27,03
1567,00;27,04
1564,00;27,09
1561,00;27,07
1558,00;27,06
1555,00;27,07
1552,00;27,14
1549,00;27,14
1546,00;27,18
1543,00;27,24
1540,00;27,19
1537,00;27,27
1534,00;27,24
1531,00;27,23
1528,00;27,29
1525,00;27,30
1522,00;27,29
1519,00;27,32
1516,00;27,29
1513,00;27,27
1510,00;27,40
1507,00;27,32
1504,00;27,33
1501,00;27,34
1498,00;27,32
1495,00;27,31
1492,00;27,36
1489,00;27,36
1486,00;27,28
1483,00;27,31
1480,00;27,30
1477,00;27,31
1474,00;27,26
1471,00;27,15
1468,00;27,13
1465,00;27,07
1462,00;27,03
1459,00;27,04
1456,00;26,86
1453,00;26,89
1450,00;26,87
1447,00;26,81
1444,00;26,80
1441,00;26,80
1438,00;26,72
1435,00;26,70
1432,00;26,75
1429,00;26,74
1426,00;26,75
1423,00;26,75
1420,00;26,73
1417,00;26,74
1414,00;26,75
1411,00;26,79
1408,00;26,83
1405,00;26,86
1402,00;26,86
1399,00;26,92
1396,00;26,90
1393,00;26,90
1390,00;26,94
1387,00;26,95
1384,00;26,94
1381,00;26,94
1378,00;26,94
1375,00;26,96
1372,00;26,91
1369,00;26,94
1366,00;26,94
1363,00;26,95
1360,00;26,88
1357,00;26,91
1354,00;26,91
1351,00;26,92
1348,00;26,92
1345,00;26,92
1342,00;26,95
1339,00;26,94
1336,00;26,90
1333,00;26,93
1330,00;26,94
1327,00;26,94
1324,00;26,94
1321,00;26,94
1318,00;26,93
1315,00;26,92
1312,00;26,92
1309,00;26,91
1306,00;26,91
1303,00;26,90
1300,00;26,89
1297,00;26,89
1294,00;26,87
1291,00;26,86
1288,00;26,84
1285,00;26,81
1282,00;26,78
1279,00;26,73
1276,00;26,69
1273,00;26,62
1270,00;26,53
1267,00;26,43
1264,00;26,31
1261,00;26,20
1258,00;26,11
1255,00;26,04
1252,00;25,96
1249,00;25,86
1246,00;25,75
1243,00;25,64
1240,00;25,53
1237,00;25,42
1234,00;25,31
1231,00;25,20
1228,00;25,11
1225,00;25,02
1222,00;24,93
1219,00;24,86
1216,00;24,79
1213,00;24,73
1210,00;24,66
1207,00;24,60
1204,00;24,54
1201,00;24,47
1198,00;24,40
1195,00;24,34
1192,00;24,28
1189,00;24,22
1186,00;24,15
1183,00;24,08
1180,00;24,03
1177,00;23,97
1174,00;23,91
1171,00;23,85
1168,00;23,80
1165,00;23,76
1162,00;23,71
1159,00;23,66
1156,00;23,60
1153,00;23,53
1150,00;23,47
1147,00;23,42
1144,00;23,38
1141,00;23,33
1138,00;23,29
1135,00;23,26
1132,00;23,23
1129,00;23,21
1126,00;23,20
1123,00;23,19
1120,00;23,19
1117,00;23,20
1114,00;23,21
1111,00;23,23
1108,00;23,26
1105,00;23,29
1102,00;23,33
1099,00;23,37
1096,00;23,40
1093,00;23,44
1090,00;23,46
1087,00;23,49
1084,00;23,51
1081,00;23,52
1078,00;23,52
1075,00;23,51
1072,00;23,49
1069,00;23,46
1066,00;23,42
1063,00;23,37
1060,00;23,32
1057,00;23,27
1054,00;23,23
1051,00;23,19
1048,00;23,18
1045,00;23,17
1042,00;23,18
1039,00;23,20
1036,00;23,22
1033,00;23,28
1030,00;23,34
1027,00;23,42
1024,00;23,51
1021,00;23,58
1018,00;23,66
1015,00;23,72
1012,00;23,78
1009,00;23,83
1006,00;23,85
1003,00;23,87
1000,00;23,86
997,00;23,85
994,00;23,84
991,00;23,77
988,00;23,69
985,00;23,60
982,00;23,50
979,00;23,45
976,00;23,39
973,00;23,35
970,00;23,32
967,00;23,26
964,00;23,20
961,00;23,10
958,00;23,00
955,00;22,91
952,00;22,83
949,00;22,80
946,00;22,82
943,00;22,87
940,00;22,95
937,00;23,04
934,00;23,12
931,00;23,17
928,00;23,20
925,00;23,18
922,00;23,13
919,00;23,07
916,00;23,02
913,00;22,99
910,00;22,97
907,00;22,97
904,00;22,98
901,00;22,99
898,00;23,01
895,00;23,01
892,00;23,01
889,00;23,01
886,00;23,01
883,00;23,00
880,00;23,00
877,00;23,00
874,00;23,00
871,00;23,01
868,00;23,02
865,00;23,03
862,00;23,05
859,00;23,06
856,00;23,08
853,00;23,09
850,00;23,10
847,00;23,11
844,00;23,10
841,00;23,10
838,00;23,09
835,00;23,08
832,00;23,07
829,00;23,04
826,00;23,00
823,00;22,94
820,00;22,88
817,00;22,83
814,00;22,78
811,00;22,73
808,00;22,67
805,00;22,63
802,00;22,60
799,00;22,57
796,00;22,58
793,00;22,58
790,00;22,56
787,00;22,55
784,00;22,52
781,00;22,50
778,00;22,49
775,00;22,47
772,00;22,47
769,00;22,46
766,00;22,42
763,00;22,41
760,00;22,39
757,00;22,38
754,00;22,36
751,00;22,36
748,00;22,37
745,00;22,36
742,00;22,35
739,00;22,36
736,00;22,37
733,00;22,36
730,00;22,36
727,00;22,35
724,00;22,33
721,00;22,31
718,00;22,29
715,00;22,29
712,00;22,30
709,00;22,28
706,00;22,25
703,00;22,25
700,00;22,24
697,00;22,24
694,00;22,22
691,00;22,17
688,00;22,11
685,00;22,03
682,00;21,96
679,00;21,89
676,00;21,83
673,00;21,75
670,00;21,83
667,00;21,45
664,00;21,46
661,00;21,54
658,00;21,53
655,00;21,50
652,00;21,49
649,00;21,49
646,00;21,44
643,00;21,41
640,00;21,39
637,00;21,34
634,00;21,27
631,00;21,20
628,00;21,09
625,00;21,07
622,00;21,00
619,00;20,96
616,00;20,94
613,00;20,87
610,00;20,86
607,00;20,81
604,00;20,78
601,00;20,80
598,00;20,74
595,00;20,78
592,00;20,86
589,00;20,86
586,00;20,88
583,00;20,95
580,00;21,06
577,00;21,07
574,00;20,99
571,00;20,93
568,00;21,01
565,00;20,98
562,00;20,89
559,00;20,95
556,00;21,02
553,00;21,01
550,00;20,94
547,00;21,08
544,00;20,96
541,00;21,00
538,00;20,99
535,00;20,90
532,00;21,17
529,00;21,16
526,00;21,27
523,00;21,38
520,00;21,19
517,00;21,67
514,00;20,93
511,00;21,14
508,00;21,78
505,00;21,01
502,00;22,70
500,00;23,05