File: FTIR/LNB_28-10-2024/MoS2(1)-20H.csv
Criado como novo conjunto de dados;Amostra 010 por Analyst data segunda-feira, outubro 28 2024
cm-1;%T
4000,00;48,00
3997,00;47,99
3994,00;47,99
3991,00;47,99
3988,00;48,00
3985,00;48,00
3982,00;48,00
3979,00;48,00
3976,00;48,00
3973,00;48,00
3970,00;48,00
3967,00;48,01
3964,00;48,01
3961,00;48,01
3958,00;48,01
3955,00;48,01
3952,00;48,00
3949,00;47,99
3946,00;47,99
3943,00;47,99
3940,00;48,01
3937,00;48,02
3934,00;48,02
3931,00;48,01
3928,00;48,00
3925,00;48,00
3922,00;48,01
3919,00;48,00
3916,00;48,03
3913,00;48,05
3910,00;48,06
3907,00;48,04
3904,00;47,99
3901,00;47,99
3898,00;47,98
3895,00;48,01
3892,00;48,05
3889,00;48,04
3886,00;48,04
3883,00;48,04
3880,00;48,01
3877,00;48,06
3874,00;48,02
3871,00;48,07
3868,00;48,02
3865,00;48,02
3862,00;48,07
3859,00;48,06
3856,00;48,10
3853,00;48,10
3850,00;48,13
3847,00;48,10
3844,00;48,12
3841,00;48,09
3838,00;48,08
3835,00;48,09
3832,00;48,12
3829,00;48,16
3826,00;48,15
3823,00;48,18
3820,00;48,11
3817,00;48,19
3814,00;48,21
3811,00;48,24
3808,00;48,29
3805,00;48,23
3802,00;48,24
3799,00;48,23
3796,00;48,24
3793,00;48,32
3790,00;48,35
3787,00;48,36
3784,00;48,35
3781,00;48,35
3778,00;48,36
3775,00;48,38
3772,00;48,40
3769,00;48,38
3766,00;48,39
3763,00;48,38
3760,00;48,38
3757,00;48,37
3754,00;48,36
3751,00;48,40
3748,00;48,33
3745,00;48,39
3742,00;48,39
3739,00;48,36
3736,00;48,37
3733,00;48,41
3730,00;48,45
3727,00;48,51
3724,00;48,52
3721,00;48,52
3718,00;48,56
3715,00;48,57
3712,00;48,56
3709,00;48,57
3706,00;48,59
3703,00;48,63
3700,00;48,65
3697,00;48,67
3694,00;48,66
3691,00;48,63
3688,00;48,62
3685,00;48,67
3682,00;48,67
3679,00;48,64
3676,00;48,64
3673,00;48,58
3670,00;48,58
3667,00;48,66
3664,00;48,68
3661,00;48,68
3658,00;48,68
3655,00;48,60
3652,00;48,53
3649,00;48,47
3646,00;48,44
3643,00;48,48
3640,00;48,50
3637,00;48,48
3634,00;48,42
3631,00;48,37
3628,00;48,29
3625,00;48,29
3622,00;48,22
3619,00;48,15
3616,00;48,09
3613,00;48,04
3610,00;48,02
3607,00;48,00
3604,00;47,97
3601,00;47,93
3598,00;47,88
3595,00;47,83
3592,00;47,79
3589,00;47,72
3586,00;47,68
3583,00;47,66
3580,00;47,64
3577,00;47,61
3574,00;47,57
3571,00;47,49
3568,00;47,38
3565,00;47,34
3562,00;47,33
3559,00;47,33
3556,00;47,30
3553,00;47,26
3550,00;47,20
3547,00;47,14
3544,00;47,11
3541,00;47,09
3538,00;47,06
3535,00;47,02
3532,00;46,99
3529,00;46,94
3526,00;46,88
3523,00;46,85
3520,00;46,84
3517,00;46,82
3514,00;46,79
3511,00;46,74
3508,00;46,71
3505,00;46,67
3502,00;46,64
3499,00;46,61
3496,00;46,60
3493,00;46,57
3490,00;46,54
3487,00;46,52
3484,00;46,48
3481,00;46,45
3478,00;46,43
3475,00;46,41
3472,00;46,39
3469,00;46,35
3466,00;46,32
3463,00;46,30
3460,00;46,28
3457,00;46,26
3454,00;46,24
3451,00;46,21
3448,00;46,18
3445,00;46,16
3442,00;46,14
3439,00;46,13
3436,00;46,11
3433,00;46,09
3430,00;46,07
3427,00;46,05
3424,00;46,03
3421,00;46,01
3418,00;45,99
3415,00;45,98
3412,00;45,97
3409,00;45,95
3406,00;45,94
3403,00;45,93
3400,00;45,91
3397,00;45,88
3394,00;45,87
3391,00;45,87
3388,00;45,85
3385,00;45,84
3382,00;45,83
3379,00;45,83
3376,00;45,82
3373,00;45,81
3370,00;45,81
3367,00;45,80
3364,00;45,78
3361,00;45,78
3358,00;45,78
3355,00;45,77
3352,00;45,77
3349,00;45,77
3346,00;45,77
3343,00;45,77
3340,00;45,77
3337,00;45,77
3334,00;45,76
3331,00;45,76
3328,00;45,76
3325,00;45,77
3322,00;45,77
3319,00;45,77
3316,00;45,77
3313,00;45,78
3310,00;45,79
3307,00;45,80
3304,00;45,80
3301,00;45,80
3298,00;45,80
3295,00;45,81
3292,00;45,81
3289,00;45,81
3286,00;45,81
3283,00;45,81
3280,00;45,81
3277,00;45,81
3274,00;45,82
3271,00;45,84
3268,00;45,83
3265,00;45,82
3262,00;45,83
3259,00;45,83
3256,00;45,83
3253,00;45,83
3250,00;45,83
3247,00;45,84
3244,00;45,83
3241,00;45,83
3238,00;45,83
3235,00;45,84
3232,00;45,84
3229,00;45,83
3226,00;45,83
3223,00;45,82
3220,00;45,82
3217,00;45,82
3214,00;45,82
3211,00;45,81
3208,00;45,81
3205,00;45,81
3202,00;45,81
3199,00;45,81
3196,00;45,81
3193,00;45,81
3190,00;45,81
3187,00;45,81
3184,00;45,81
3181,00;45,80
3178,00;45,80
3175,00;45,80
3172,00;45,81
3169,00;45,81
3166,00;45,81
3163,00;45,81
3160,00;45,81
3157,00;45,81
3154,00;45,82
3151,00;45,83
3148,00;45,81
3145,00;45,81
3142,00;45,82
3139,00;45,83
3136,00;45,81
3133,00;45,81
3130,00;45,82
3127,00;45,81
3124,00;45,82
3121,00;45,84
3118,00;45,84
3115,00;45,84
3112,00;45,84
3109,00;45,84
3106,00;45,84
3103,00;45,84
3100,00;45,85
3097,00;45,84
3094,00;45,85
3091,00;45,87
3088,00;45,87
3085,00;45,88
3082,00;45,88
3079,00;45,89
3076,00;45,89
3073,00;45,88
3070,00;45,89
3067,00;45,90
3064,00;45,90
3061,00;45,90
3058,00;45,91
3055,00;45,92
3052,00;45,92
3049,00;45,93
3046,00;45,94
3043,00;45,95
3040,00;45,95
3037,00;45,95
3034,00;45,96
3031,00;45,96
3028,00;45,95
3025,00;45,97
3022,00;45,97
3019,00;45,98
3016,00;45,99
3013,00;46,00
3010,00;46,00
3007,00;45,99
3004,00;45,99
3001,00;45,99
2998,00;46,01
2995,00;46,01
2992,00;46,00
2989,00;45,99
2986,00;45,98
2983,00;45,97
2980,00;45,96
2977,00;45,94
2974,00;45,92
2971,00;45,90
2968,00;45,87
2965,00;45,85
2962,00;45,82
2959,00;45,78
2956,00;45,74
2953,00;45,71
2950,00;45,69
2947,00;45,70
2944,00;45,71
2941,00;45,71
2938,00;45,71
2935,00;45,71
2932,00;45,69
2929,00;45,65
2926,00;45,58
2923,00;45,49
2920,00;45,39
2917,00;45,30
2914,00;45,23
2911,00;45,20
2908,00;45,19
2905,00;45,23
2902,00;45,31
2899,00;45,40
2896,00;45,49
2893,00;45,56
2890,00;45,61
2887,00;45,65
2884,00;45,68
2881,00;45,71
2878,00;45,73
2875,00;45,76
2872,00;45,78
2869,00;45,78
2866,00;45,79
2863,00;45,80
2860,00;45,82
2857,00;45,82
2854,00;45,81
2851,00;45,79
2848,00;45,78
2845,00;45,78
2842,00;45,79
2839,00;45,83
2836,00;45,87
2833,00;45,91
2830,00;45,96
2827,00;46,01
2824,00;46,05
2821,00;46,08
2818,00;46,11
2815,00;46,13
2812,00;46,15
2809,00;46,17
2806,00;46,18
2803,00;46,19
2800,00;46,21
2797,00;46,23
2794,00;46,24
2791,00;46,25
2788,00;46,26
2785,00;46,27
2782,00;46,28
2779,00;46,29
2776,00;46,31
2773,00;46,32
2770,00;46,32
2767,00;46,33
2764,00;46,34
2761,00;46,36
2758,00;46,37
2755,00;46,38
2752,00;46,39
2749,00;46,41
2746,00;46,41
2743,00;46,42
2740,00;46,42
2737,00;46,44
2734,00;46,44
2731,00;46,45
2728,00;46,47
2725,00;46,48
2722,00;46,48
2719,00;46,49
2716,00;46,50
2713,00;46,51
2710,00;46,52
2707,00;46,53
2704,00;46,54
2701,00;46,54
2698,00;46,56
2695,00;46,56
2692,00;46,57
2689,00;46,58
2686,00;46,59
2683,00;46,60
2680,00;46,62
2677,00;46,63
2674,00;46,63
2671,00;46,63
2668,00;46,64
2665,00;46,64
2662,00;46,64
2659,00;46,65
2656,00;46,67
2653,00;46,70
2650,00;46,73
2647,00;46,75
2644,00;46,79
2641,00;46,82
2638,00;46,85
2635,00;46,88
2632,00;46,91
2629,00;46,94
2626,00;46,96
2623,00;46,99
2620,00;47,01
2617,00;47,03
2614,00;47,05
2611,00;47,07
2608,00;47,09
2605,00;47,10
2602,00;47,13
2599,00;47,15
2596,00;47,17
2593,00;47,18
2590,00;47,19
2587,00;47,20
2584,00;47,22
2581,00;47,23
2578,00;47,24
2575,00;47,25
2572,00;47,27
2569,00;47,28
2566,00;47,28
2563,00;47,29
2560,00;47,31
2557,00;47,31
2554,00;47,32
2551,00;47,33
2548,00;47,34
2545,00;47,35
2542,00;47,35
2539,00;47,35
2536,00;47,36
2533,00;47,37
2530,00;47,38
2527,00;47,39
2524,00;47,39
2521,00;47,40
2518,00;47,40
2515,00;47,40
2512,00;47,41
2509,00;47,41
2506,00;47,42
2503,00;47,42
2500,00;47,42
2497,00;47,42
2494,00;47,43
2491,00;47,43
2488,00;47,44
2485,00;47,45
2482,00;47,45
2479,00;47,45
2476,00;47,46
2473,00;47,46
2470,00;47,46
2467,00;47,46
2464,00;47,47
2461,00;47,47
2458,00;47,46
2455,00;47,46
2452,00;47,47
2449,00;47,48
2446,00;47,49
2443,00;47,49
2440,00;47,50
2437,00;47,51
2434,00;47,52
2431,00;47,52
2428,00;47,53
2425,00;47,54
2422,00;47,54
2419,00;47,54
2416,00;47,54
2413,00;47,55
2410,00;47,55
2407,00;47,57
2404,00;47,57
2401,00;47,57
2398,00;47,56
2395,00;47,56
2392,00;47,57
2389,00;47,56
2386,00;47,56
2383,00;47,57
2380,00;47,59
2377,00;47,62
2374,00;47,62
2371,00;47,62
2368,00;47,61
2365,00;47,60
2362,00;47,58
2359,00;47,56
2356,00;47,54
2353,00;47,53
2350,00;47,55
2347,00;47,53
2344,00;47,57
2341,00;47,53
2338,00;47,51
2335,00;47,50
2332,00;47,50
2329,00;47,49
2326,00;47,38
2323,00;47,36
2320,00;47,46
2317,00;47,49
2314,00;47,53
2311,00;47,55
2308,00;47,56
2305,00;47,58
2302,00;47,58
2299,00;47,59
2296,00;47,59
2293,00;47,58
2290,00;47,57
2287,00;47,57
2284,00;47,59
2281,00;47,63
2278,00;47,67
2275,00;47,70
2272,00;47,71
2269,00;47,73
2266,00;47,77
2263,00;47,77
2260,00;47,77
2257,00;47,76
2254,00;47,81
2251,00;47,83
2248,00;47,83
2245,00;47,81
2242,00;47,82
2239,00;47,84
2236,00;47,84
2233,00;47,83
2230,00;47,85
2227,00;47,86
2224,00;47,87
2221,00;47,90
2218,00;47,89
2215,00;47,89
2212,00;47,89
2209,00;47,91
2206,00;47,90
2203,00;47,90
2200,00;47,91
2197,00;47,92
2194,00;47,93
2191,00;47,91
2188,00;47,90
2185,00;47,91
2182,00;47,97
2179,00;48,00
2176,00;48,00
2173,00;48,03
2170,00;47,98
2167,00;47,94
2164,00;47,88
2161,00;47,88
2158,00;48,43
2155,00;48,44
2152,00;48,27
2149,00;48,22
2146,00;48,23
2143,00;48,23
2140,00;48,22
2137,00;48,21
2134,00;48,27
2131,00;48,24
2128,00;48,18
2125,00;48,12
2122,00;48,08
2119,00;48,05
2116,00;48,00
2113,00;47,97
2110,00;47,99
2107,00;48,00
2104,00;48,00
2101,00;48,01
2098,00;48,04
2095,00;48,09
2092,00;48,09
2089,00;48,06
2086,00;48,05
2083,00;48,04
2080,00;48,03
2077,00;48,05
2074,00;48,05
2071,00;48,08
2068,00;48,10
2065,00;48,10
2062,00;48,11
2059,00;48,12
2056,00;48,13
2053,00;48,10
2050,00;48,01
2047,00;48,16
2044,00;48,19
2041,00;48,20
2038,00;48,19
2035,00;48,24
2032,00;48,32
2029,00;48,31
2026,00;48,36
2023,00;48,38
2020,00;48,34
2017,00;48,34
2014,00;48,36
2011,00;48,37
2008,00;48,42
2005,00;48,47
2002,00;48,41
1999,00;48,37
1996,00;48,34
1993,00;48,35
1990,00;48,35
1987,00;48,33
1984,00;48,28
1981,00;48,23
1978,00;48,36
1975,00;48,55
1972,00;48,55
1969,00;48,56
1966,00;48,55
1963,00;48,53
1960,00;48,57
1957,00;48,58
1954,00;48,53
1951,00;48,51
1948,00;48,52
1945,00;48,51
1942,00;48,53
1939,00;48,52
1936,00;48,51
1933,00;48,51
1930,00;48,51
1927,00;48,51
1924,00;48,51
1921,00;48,48
1918,00;48,49
1915,00;48,49
1912,00;48,47
1909,00;48,48
1906,00;48,49
1903,00;48,50
1900,00;48,49
1897,00;48,51
1894,00;48,50
1891,00;48,51
1888,00;48,52
1885,00;48,53
1882,00;48,53
1879,00;48,53
1876,00;48,52
1873,00;48,53
1870,00;48,55
1867,00;48,54
1864,00;48,54
1861,00;48,56
1858,00;48,56
1855,00;48,56
1852,00;48,56
1849,00;48,57
1846,00;48,57
1843,00;48,58
1840,00;48,58
1837,00;48,57
1834,00;48,57
1831,00;48,57
1828,00;48,56
1825,00;48,57
1822,00;48,57
1819,00;48,59
1816,00;48,60
1813,00;48,58
1810,00;48,55
1807,00;48,54
1804,00;48,54
1801,00;48,55
1798,00;48,54
1795,00;48,53
1792,00;48,54
1789,00;48,54
1786,00;48,54
1783,00;48,53
1780,00;48,52
1777,00;48,51
1774,00;48,50
1771,00;48,47
1768,00;48,46
1765,00;48,44
1762,00;48,42
1759,00;48,40
1756,00;48,37
1753,00;48,35
1750,00;48,33
1747,00;48,26
1744,00;48,23
1741,00;48,21
1738,00;48,16
1735,00;48,13
1732,00;48,08
1729,00;47,99
1726,00;47,92
1723,00;47,84
1720,00;47,76
1717,00;47,70
1714,00;47,61
1711,00;47,52
1708,00;47,43
1705,00;47,34
1702,00;47,27
1699,00;47,22
1696,00;47,13
1693,00;47,07
1690,00;46,92
1687,00;46,81
1684,00;46,74
1681,00;46,66
1678,00;46,55
1675,00;46,49
1672,00;46,41
1669,00;46,36
1666,00;46,31
1663,00;46,24
1660,00;46,20
1657,00;46,11
1654,00;46,07
1651,00;46,04
1648,00;45,89
1645,00;45,85
1642,00;45,78
1639,00;45,68
1636,00;45,63
1633,00;45,62
1630,00;45,54
1627,00;45,50
1624,00;45,48
1621,00;45,48
1618,00;45,48
1615,00;45,54
1612,00;45,55
1609,00;45,59
1606,00;45,65
1603,00;45,72
1600,00;45,78
1597,00;45,85
1594,00;45,91
1591,00;45,98
1588,00;46,05
1585,00;46,11
1582,00;46,17
1579,00;46,21
1576,00;46,28
1573,00;46,34
1570,00;46,38
1567,00;46,44
1564,00;46,49
1561,00;46,54
1558,00;46,63
1555,00;46,66
1552,00;46,71
1549,00;46,75
1546,00;46,80
1543,00;46,82
1540,00;46,87
1537,00;46,95
1534,00;46,99
1531,00;47,05
1528,00;47,10
1525,00;47,13
1522,00;47,17
1519,00;47,22
1516,00;47,26
1513,00;47,30
1510,00;47,34
1507,00;47,37
1504,00;47,41
1501,00;47,42
1498,00;47,44
1495,00;47,45
1492,00;47,45
1489,00;47,43
1486,00;47,42
1483,00;47,42
1480,00;47,41
1477,00;47,38
1474,00;47,32
1471,00;47,21
1468,00;47,09
1465,00;46,94
1462,00;46,81
1459,00;46,74
1456,00;46,66
1453,00;46,62
1450,00;46,58
1447,00;46,58
1444,00;46,58
1441,00;46,59
1438,00;46,60
1435,00;46,63
1432,00;46,62
1429,00;46,63
1426,00;46,64
1423,00;46,65
1420,00;46,67
1417,00;46,70
1414,00;46,70
1411,00;46,74
1408,00;46,77
1405,00;46,79
1402,00;46,82
1399,00;46,85
1396,00;46,86
1393,00;46,87
1390,00;46,87
1387,00;46,85
1384,00;46,82
1381,00;46,76
1378,00;46,68
1375,00;46,65
1372,00;46,69
1369,00;46,75
1366,00;46,78
1363,00;46,78
1360,00;46,79
1357,00;46,80
1354,00;46,83
1351,00;46,87
1348,00;46,93
1345,00;47,01
1342,00;47,07
1339,00;47,13
1336,00;47,18
1333,00;47,24
1330,00;47,29
1327,00;47,32
1324,00;47,34
1321,00;47,35
1318,00;47,36
1315,00;47,37
1312,00;47,39
1309,00;47,42
1306,00;47,44
1303,00;47,46
1300,00;47,49
1297,00;47,51
1294,00;47,52
1291,00;47,52
1288,00;47,52
1285,00;47,50
1282,00;47,48
1279,00;47,44
1276,00;47,39
1273,00;47,31
1270,00;47,20
1267,00;47,07
1264,00;46,92
1261,00;46,79
1258,00;46,69
1255,00;46,59
1252,00;46,44
1249,00;46,27
1246,00;46,08
1243,00;45,87
1240,00;45,66
1237,00;45,44
1234,00;45,22
1231,00;45,00
1228,00;44,79
1225,00;44,59
1222,00;44,41
1219,00;44,24
1216,00;44,08
1213,00;43,93
1210,00;43,80
1207,00;43,67
1204,00;43,55
1201,00;43,44
1198,00;43,33
1195,00;43,23
1192,00;43,14
1189,00;43,05
1186,00;42,96
1183,00;42,86
1180,00;42,77
1177,00;42,68
1174,00;42,57
1171,00;42,44
1168,00;42,31
1165,00;42,17
1162,00;42,02
1159,00;41,86
1156,00;41,70
1153,00;41,53
1150,00;41,34
1147,00;41,15
1144,00;40,98
1141,00;40,82
1138,00;40,65
1135,00;40,47
1132,00;40,30
1129,00;40,13
1126,00;40,01
1123,00;39,89
1120,00;39,81
1117,00;39,76
1114,00;39,74
1111,00;39,74
1108,00;39,76
1105,00;39,80
1102,00;39,85
1099,00;39,89
1096,00;39,94
1093,00;40,00
1090,00;40,04
1087,00;40,08
1084,00;40,12
1081,00;40,15
1078,00;40,17
1075,00;40,18
1072,00;40,20
1069,00;40,23
1066,00;40,26
1063,00;40,30
1060,00;40,34
1057,00;40,40
1054,00;40,46
1051,00;40,53
1048,00;40,58
1045,00;40,65
1042,00;40,75
1039,00;40,91
1036,00;41,10
1033,00;41,31
1030,00;41,54
1027,00;41,76
1024,00;41,96
1021,00;42,12
1018,00;42,25
1015,00;42,35
1012,00;42,43
1009,00;42,48
1006,00;42,53
1003,00;42,57
1000,00;42,60
997,00;42,63
994,00;42,66
991,00;42,69
988,00;42,72
985,00;42,73
982,00;42,73
979,00;42,72
976,00;42,71
973,00;42,69
970,00;42,66
967,00;42,62
964,00;42,56
961,00;42,49
958,00;42,40
955,00;42,30
952,00;42,20
949,00;42,11
946,00;42,01
943,00;41,94
940,00;41,89
937,00;41,89
934,00;41,93
931,00;42,02
928,00;42,11
925,00;42,19
922,00;42,25
919,00;42,29
916,00;42,29
913,00;42,29
910,00;42,30
907,00;42,29
904,00;42,30
901,00;42,31
898,00;42,34
895,00;42,37
892,00;42,40
889,00;42,44
886,00;42,46
883,00;42,48
880,00;42,51
877,00;42,52
874,00;42,55
871,00;42,58
868,00;42,62
865,00;42,65
862,00;42,69
859,00;42,74
856,00;42,79
853,00;42,82
850,00;42,85
847,00;42,88
844,00;42,89
841,00;42,88
838,00;42,89
835,00;42,87
832,00;42,87
829,00;42,83
826,00;42,77
823,00;42,69
820,00;42,62
817,00;42,53
814,00;42,43
811,00;42,33
808,00;42,20
805,00;42,08
802,00;41,97
799,00;41,85
796,00;41,72
793,00;41,59
790,00;41,42
787,00;41,23
784,00;41,00
781,00;40,78
778,00;40,54
775,00;40,33
772,00;40,13
769,00;39,91
766,00;39,67
763,00;39,44
760,00;39,22
757,00;39,01
754,00;38,81
751,00;38,62
748,00;38,44
745,00;38,27
742,00;38,10
739,00;37,94
736,00;37,79
733,00;37,65
730,00;37,48
727,00;37,34
724,00;37,21
721,00;37,05
718,00;36,91
715,00;36,78
712,00;36,67
709,00;36,53
706,00;36,40
703,00;36,27
700,00;36,14
697,00;36,04
694,00;35,91
691,00;35,79
688,00;35,68
685,00;35,52
682,00;35,36
679,00;35,19
676,00;35,02
673,00;34,84
670,00;34,71
667,00;34,42
664,00;34,29
661,00;34,13
658,00;33,94
655,00;33,72
652,00;33,51
649,00;33,33
646,00;33,17
643,00;32,93
640,00;32,74
637,00;32,56
634,00;32,35
631,00;32,11
628,00;31,92
625,00;31,72
622,00;31,53
619,00;31,35
616,00;31,14
613,00;30,96
610,00;30,78
607,00;30,60
604,00;30,41
601,00;30,27
598,00;30,08
595,00;29,88
592,00;29,82
589,00;29,72
586,00;29,60
583,00;29,51
580,00;29,42
577,00;29,36
574,00;29,27
571,00;29,21
568,00;29,23
565,00;29,30
562,00;29,25
559,00;29,32
556,00;29,35
553,00;29,39
550,00;29,41
547,00;29,38
544,00;29,31
541,00;29,16
538,00;29,05
535,00;28,87
532,00;28,51
529,00;28,32
526,00;28,14
523,00;27,86
520,00;27,71
517,00;27,15
514,00;26,89
511,00;26,04
508,00;26,12
505,00;26,86
502,00;25,96
500,00;24,54