File: FTIR/LNB_28-10-2024/MoS2(1)-3H.csv
Criado como novo conjunto de dados;Amostra 005 por Analyst data segunda-feira, outubro 28 2024
cm-1;%T
4000,00;30,92
3997,00;30,92
3994,00;30,91
3991,00;30,90
3988,00;30,90
3985,00;30,91
3982,00;30,90
3979,00;30,90
3976,00;30,90
3973,00;30,89
3970,00;30,89
3967,00;30,89
3964,00;30,90
3961,00;30,88
3958,00;30,88
3955,00;30,88
3952,00;30,89
3949,00;30,87
3946,00;30,85
3943,00;30,83
3940,00;30,84
3937,00;30,86
3934,00;30,89
3931,00;30,84
3928,00;30,82
3925,00;30,83
3922,00;30,83
3919,00;30,82
3916,00;30,80
3913,00;30,82
3910,00;30,87
3907,00;30,88
3904,00;30,81
3901,00;30,70
3898,00;30,67
3895,00;30,78
3892,00;30,78
3889,00;30,83
3886,00;30,76
3883,00;30,83
3880,00;30,68
3877,00;30,79
3874,00;30,79
3871,00;30,76
3868,00;30,76
3865,00;30,71
3862,00;30,74
3859,00;30,78
3856,00;30,75
3853,00;30,83
3850,00;30,79
3847,00;30,75
3844,00;30,83
3841,00;30,82
3838,00;30,73
3835,00;30,74
3832,00;30,70
3829,00;30,81
3826,00;30,81
3823,00;30,81
3820,00;30,76
3817,00;30,70
3814,00;30,83
3811,00;30,82
3808,00;30,87
3805,00;30,92
3802,00;30,78
3799,00;30,85
3796,00;30,72
3793,00;30,84
3790,00;30,90
3787,00;30,94
3784,00;30,90
3781,00;30,88
3778,00;30,86
3775,00;30,87
3772,00;30,92
3769,00;30,89
3766,00;30,83
3763,00;30,87
3760,00;30,87
3757,00;30,85
3754,00;30,84
3751,00;30,90
3748,00;30,79
3745,00;30,63
3742,00;30,88
3739,00;30,79
3736,00;30,83
3733,00;30,63
3730,00;30,77
3727,00;30,84
3724,00;30,86
3721,00;30,81
3718,00;30,86
3715,00;30,91
3712,00;30,92
3709,00;30,79
3706,00;30,83
3703,00;30,89
3700,00;30,89
3697,00;30,91
3694,00;30,95
3691,00;30,91
3688,00;30,82
3685,00;30,86
3682,00;30,89
3679,00;30,92
3676,00;30,82
3673,00;30,75
3670,00;30,68
3667,00;30,75
3664,00;30,81
3661,00;30,88
3658,00;30,85
3655,00;30,81
3652,00;30,76
3649,00;30,69
3646,00;30,50
3643,00;30,63
3640,00;30,73
3637,00;30,74
3634,00;30,70
3631,00;30,63
3628,00;30,52
3625,00;30,50
3622,00;30,54
3619,00;30,50
3616,00;30,46
3613,00;30,37
3610,00;30,38
3607,00;30,37
3604,00;30,38
3601,00;30,42
3598,00;30,38
3595,00;30,31
3592,00;30,28
3589,00;30,28
3586,00;30,18
3583,00;30,17
3580,00;30,22
3577,00;30,22
3574,00;30,19
3571,00;30,19
3568,00;30,14
3565,00;29,96
3562,00;29,98
3559,00;30,03
3556,00;30,04
3553,00;30,03
3550,00;29,99
3547,00;29,98
3544,00;29,90
3541,00;29,88
3538,00;29,91
3535,00;29,88
3532,00;29,87
3529,00;29,85
3526,00;29,80
3523,00;29,75
3520,00;29,73
3517,00;29,75
3514,00;29,75
3511,00;29,73
3508,00;29,68
3505,00;29,69
3502,00;29,64
3499,00;29,61
3496,00;29,61
3493,00;29,58
3490,00;29,59
3487,00;29,56
3484,00;29,54
3481,00;29,52
3478,00;29,48
3475,00;29,47
3472,00;29,47
3469,00;29,46
3466,00;29,42
3463,00;29,40
3460,00;29,38
3457,00;29,35
3454,00;29,34
3451,00;29,33
3448,00;29,32
3445,00;29,27
3442,00;29,26
3439,00;29,26
3436,00;29,25
3433,00;29,23
3430,00;29,21
3427,00;29,19
3424,00;29,18
3421,00;29,16
3418,00;29,13
3415,00;29,13
3412,00;29,12
3409,00;29,11
3406,00;29,09
3403,00;29,09
3400,00;29,08
3397,00;29,04
3394,00;29,04
3391,00;29,01
3388,00;28,99
3385,00;28,98
3382,00;28,97
3379,00;28,96
3376,00;28,95
3373,00;28,93
3370,00;28,94
3367,00;28,91
3364,00;28,88
3361,00;28,87
3358,00;28,85
3355,00;28,84
3352,00;28,84
3349,00;28,82
3346,00;28,80
3343,00;28,80
3340,00;28,78
3337,00;28,76
3334,00;28,72
3331,00;28,72
3328,00;28,71
3325,00;28,69
3322,00;28,66
3319,00;28,64
3316,00;28,62
3313,00;28,61
3310,00;28,60
3307,00;28,58
3304,00;28,55
3301,00;28,51
3298,00;28,50
3295,00;28,49
3292,00;28,46
3289,00;28,42
3286,00;28,39
3283,00;28,38
3280,00;28,35
3277,00;28,34
3274,00;28,33
3271,00;28,30
3268,00;28,26
3265,00;28,24
3262,00;28,23
3259,00;28,21
3256,00;28,20
3253,00;28,17
3250,00;28,16
3247,00;28,16
3244,00;28,12
3241,00;28,10
3238,00;28,10
3235,00;28,10
3232,00;28,08
3229,00;28,06
3226,00;28,04
3223,00;28,04
3220,00;28,04
3217,00;28,03
3214,00;28,02
3211,00;28,01
3208,00;28,01
3205,00;28,01
3202,00;28,01
3199,00;28,01
3196,00;28,00
3193,00;28,00
3190,00;28,01
3187,00;28,01
3184,00;28,01
3181,00;28,01
3178,00;28,01
3175,00;28,01
3172,00;28,02
3169,00;28,03
3166,00;28,03
3163,00;28,04
3160,00;28,04
3157,00;28,05
3154,00;28,08
3151,00;28,07
3148,00;28,06
3145,00;28,07
3142,00;28,09
3139,00;28,10
3136,00;28,09
3133,00;28,09
3130,00;28,10
3127,00;28,09
3124,00;28,10
3121,00;28,12
3118,00;28,12
3115,00;28,10
3112,00;28,09
3109,00;28,10
3106,00;28,09
3103,00;28,09
3100,00;28,09
3097,00;28,07
3094,00;28,07
3091,00;28,08
3088,00;28,08
3085,00;28,08
3082,00;28,07
3079,00;28,07
3076,00;28,04
3073,00;28,04
3070,00;28,04
3067,00;28,04
3064,00;28,02
3061,00;28,02
3058,00;28,03
3055,00;28,03
3052,00;28,03
3049,00;28,03
3046,00;28,04
3043,00;28,05
3040,00;28,04
3037,00;28,04
3034,00;28,06
3031,00;28,04
3028,00;28,05
3025,00;28,06
3022,00;28,07
3019,00;28,09
3016,00;28,10
3013,00;28,11
3010,00;28,10
3007,00;28,11
3004,00;28,12
3001,00;28,13
2998,00;28,15
2995,00;28,15
2992,00;28,16
2989,00;28,16
2986,00;28,16
2983,00;28,17
2980,00;28,19
2977,00;28,18
2974,00;28,18
2971,00;28,17
2968,00;28,15
2965,00;28,13
2962,00;28,11
2959,00;28,08
2956,00;28,06
2953,00;28,05
2950,00;28,03
2947,00;28,05
2944,00;28,05
2941,00;28,05
2938,00;28,06
2935,00;28,06
2932,00;28,06
2929,00;28,03
2926,00;27,97
2923,00;27,90
2920,00;27,82
2917,00;27,77
2914,00;27,76
2911,00;27,76
2908,00;27,78
2905,00;27,81
2902,00;27,86
2899,00;27,90
2896,00;27,94
2893,00;27,96
2890,00;27,98
2887,00;28,01
2884,00;28,02
2881,00;28,04
2878,00;28,05
2875,00;28,07
2872,00;28,07
2869,00;28,06
2866,00;28,06
2863,00;28,06
2860,00;28,07
2857,00;28,05
2854,00;28,03
2851,00;28,00
2848,00;28,00
2845,00;27,99
2842,00;28,02
2839,00;28,05
2836,00;28,08
2833,00;28,10
2830,00;28,13
2827,00;28,15
2824,00;28,18
2821,00;28,20
2818,00;28,21
2815,00;28,22
2812,00;28,24
2809,00;28,25
2806,00;28,26
2803,00;28,27
2800,00;28,29
2797,00;28,30
2794,00;28,31
2791,00;28,32
2788,00;28,33
2785,00;28,33
2782,00;28,34
2779,00;28,35
2776,00;28,37
2773,00;28,37
2770,00;28,37
2767,00;28,38
2764,00;28,39
2761,00;28,39
2758,00;28,40
2755,00;28,41
2752,00;28,41
2749,00;28,43
2746,00;28,43
2743,00;28,43
2740,00;28,44
2737,00;28,45
2734,00;28,45
2731,00;28,45
2728,00;28,46
2725,00;28,47
2722,00;28,47
2719,00;28,47
2716,00;28,48
2713,00;28,48
2710,00;28,48
2707,00;28,49
2704,00;28,49
2701,00;28,50
2698,00;28,50
2695,00;28,50
2692,00;28,51
2689,00;28,51
2686,00;28,52
2683,00;28,52
2680,00;28,53
2677,00;28,53
2674,00;28,53
2671,00;28,53
2668,00;28,53
2665,00;28,54
2662,00;28,54
2659,00;28,55
2656,00;28,57
2653,00;28,58
2650,00;28,59
2647,00;28,60
2644,00;28,62
2641,00;28,64
2638,00;28,65
2635,00;28,66
2632,00;28,67
2629,00;28,68
2626,00;28,69
2623,00;28,69
2620,00;28,70
2617,00;28,71
2614,00;28,72
2611,00;28,72
2608,00;28,73
2605,00;28,73
2602,00;28,74
2599,00;28,74
2596,00;28,75
2593,00;28,75
2590,00;28,76
2587,00;28,76
2584,00;28,76
2581,00;28,76
2578,00;28,77
2575,00;28,78
2572,00;28,77
2569,00;28,77
2566,00;28,77
2563,00;28,77
2560,00;28,78
2557,00;28,78
2554,00;28,78
2551,00;28,78
2548,00;28,78
2545,00;28,78
2542,00;28,79
2539,00;28,78
2536,00;28,78
2533,00;28,78
2530,00;28,78
2527,00;28,78
2524,00;28,78
2521,00;28,78
2518,00;28,78
2515,00;28,78
2512,00;28,77
2509,00;28,77
2506,00;28,78
2503,00;28,77
2500,00;28,77
2497,00;28,76
2494,00;28,76
2491,00;28,76
2488,00;28,77
2485,00;28,77
2482,00;28,76
2479,00;28,75
2476,00;28,75
2473,00;28,75
2470,00;28,75
2467,00;28,75
2464,00;28,75
2461,00;28,75
2458,00;28,75
2455,00;28,74
2452,00;28,75
2449,00;28,75
2446,00;28,75
2443,00;28,75
2440,00;28,75
2437,00;28,74
2434,00;28,74
2431,00;28,75
2428,00;28,74
2425,00;28,74
2422,00;28,74
2419,00;28,74
2416,00;28,74
2413,00;28,74
2410,00;28,74
2407,00;28,74
2404,00;28,73
2401,00;28,73
2398,00;28,73
2395,00;28,73
2392,00;28,73
2389,00;28,73
2386,00;28,75
2383,00;28,80
2380,00;28,86
2377,00;28,92
2374,00;28,92
2371,00;28,89
2368,00;28,85
2365,00;28,78
2362,00;28,69
2359,00;28,61
2356,00;28,51
2353,00;28,43
2350,00;28,55
2347,00;28,80
2344,00;28,81
2341,00;28,69
2338,00;28,63
2335,00;28,64
2332,00;28,63
2329,00;28,59
2326,00;28,60
2323,00;28,63
2320,00;28,62
2317,00;28,62
2314,00;28,65
2311,00;28,65
2308,00;28,66
2305,00;28,68
2302,00;28,69
2299,00;28,70
2296,00;28,70
2293,00;28,71
2290,00;28,71
2287,00;28,72
2284,00;28,73
2281,00;28,75
2278,00;28,76
2275,00;28,75
2272,00;28,76
2269,00;28,76
2266,00;28,77
2263,00;28,77
2260,00;28,76
2257,00;28,76
2254,00;28,78
2251,00;28,78
2248,00;28,78
2245,00;28,79
2242,00;28,80
2239,00;28,80
2236,00;28,80
2233,00;28,79
2230,00;28,80
2227,00;28,80
2224,00;28,80
2221,00;28,79
2218,00;28,80
2215,00;28,80
2212,00;28,80
2209,00;28,81
2206,00;28,82
2203,00;28,81
2200,00;28,82
2197,00;28,81
2194,00;28,81
2191,00;28,81
2188,00;28,80
2185,00;28,81
2182,00;28,80
2179,00;28,80
2176,00;28,79
2173,00;28,82
2170,00;28,81
2167,00;28,82
2164,00;28,81
2161,00;28,82
2158,00;28,91
2155,00;28,87
2152,00;28,84
2149,00;28,82
2146,00;28,83
2143,00;28,83
2140,00;28,82
2137,00;28,81
2134,00;28,84
2131,00;28,82
2128,00;28,80
2125,00;28,80
2122,00;28,80
2119,00;28,80
2116,00;28,79
2113,00;28,80
2110,00;28,79
2107,00;28,80
2104,00;28,80
2101,00;28,81
2098,00;28,82
2095,00;28,83
2092,00;28,84
2089,00;28,84
2086,00;28,83
2083,00;28,84
2080,00;28,85
2077,00;28,86
2074,00;28,87
2071,00;28,88
2068,00;28,88
2065,00;28,88
2062,00;28,88
2059,00;28,89
2056,00;28,90
2053,00;28,91
2050,00;28,95
2047,00;28,96
2044,00;28,95
2041,00;28,96
2038,00;28,96
2035,00;28,99
2032,00;28,98
2029,00;28,97
2026,00;28,98
2023,00;28,99
2020,00;28,99
2017,00;29,00
2014,00;29,00
2011,00;28,98
2008,00;28,99
2005,00;29,00
2002,00;28,99
1999,00;28,97
1996,00;29,00
1993,00;28,99
1990,00;28,99
1987,00;29,00
1984,00;29,03
1981,00;29,06
1978,00;29,10
1975,00;29,10
1972,00;29,08
1969,00;29,10
1966,00;29,07
1963,00;29,06
1960,00;29,07
1957,00;29,07
1954,00;29,07
1951,00;29,08
1948,00;29,06
1945,00;29,08
1942,00;29,06
1939,00;29,05
1936,00;29,08
1933,00;29,08
1930,00;29,09
1927,00;29,09
1924,00;29,09
1921,00;29,07
1918,00;29,09
1915,00;29,11
1912,00;29,12
1909,00;29,11
1906,00;29,11
1903,00;29,12
1900,00;29,13
1897,00;29,14
1894,00;29,13
1891,00;29,14
1888,00;29,13
1885,00;29,14
1882,00;29,16
1879,00;29,17
1876,00;29,17
1873,00;29,20
1870,00;29,19
1867,00;29,15
1864,00;29,15
1861,00;29,19
1858,00;29,20
1855,00;29,21
1852,00;29,22
1849,00;29,23
1846,00;29,20
1843,00;29,22
1840,00;29,21
1837,00;29,24
1834,00;29,25
1831,00;29,24
1828,00;29,23
1825,00;29,22
1822,00;29,25
1819,00;29,26
1816,00;29,25
1813,00;29,27
1810,00;29,24
1807,00;29,24
1804,00;29,26
1801,00;29,26
1798,00;29,25
1795,00;29,24
1792,00;29,26
1789,00;29,24
1786,00;29,26
1783,00;29,28
1780,00;29,25
1777,00;29,25
1774,00;29,24
1771,00;29,24
1768,00;29,20
1765,00;29,25
1762,00;29,23
1759,00;29,22
1756,00;29,20
1753,00;29,20
1750,00;29,19
1747,00;29,08
1744,00;29,08
1741,00;29,07
1738,00;29,07
1735,00;29,03
1732,00;29,04
1729,00;28,92
1726,00;28,94
1723,00;28,92
1720,00;28,85
1717,00;28,85
1714,00;28,74
1711,00;28,73
1708,00;28,73
1705,00;28,66
1702,00;28,58
1699,00;28,67
1696,00;28,50
1693,00;28,59
1690,00;28,52
1687,00;28,44
1684,00;28,46
1681,00;28,34
1678,00;28,32
1675,00;28,33
1672,00;28,29
1669,00;28,19
1666,00;28,19
1663,00;28,18
1660,00;28,14
1657,00;28,11
1654,00;28,09
1651,00;28,15
1648,00;28,01
1645,00;27,98
1642,00;28,03
1639,00;28,05
1636,00;28,00
1633,00;28,00
1630,00;28,01
1627,00;28,00
1624,00;28,00
1621,00;27,98
1618,00;28,00
1615,00;28,05
1612,00;28,05
1609,00;28,07
1606,00;28,09
1603,00;28,14
1600,00;28,17
1597,00;28,22
1594,00;28,25
1591,00;28,29
1588,00;28,33
1585,00;28,37
1582,00;28,40
1579,00;28,44
1576,00;28,48
1573,00;28,49
1570,00;28,52
1567,00;28,54
1564,00;28,57
1561,00;28,60
1558,00;28,58
1555,00;28,61
1552,00;28,70
1549,00;28,69
1546,00;28,75
1543,00;28,75
1540,00;28,71
1537,00;28,80
1534,00;28,82
1531,00;28,84
1528,00;28,89
1525,00;28,89
1522,00;28,90
1519,00;28,92
1516,00;28,88
1513,00;28,94
1510,00;28,99
1507,00;28,90
1504,00;28,99
1501,00;29,04
1498,00;29,06
1495,00;29,06
1492,00;29,09
1489,00;29,02
1486,00;29,00
1483,00;29,05
1480,00;29,04
1477,00;29,02
1474,00;28,94
1471,00;28,79
1468,00;28,73
1465,00;28,63
1462,00;28,54
1459,00;28,47
1456,00;28,30
1453,00;28,27
1450,00;28,23
1447,00;28,14
1444,00;28,10
1441,00;28,06
1438,00;28,00
1435,00;27,92
1432,00;27,90
1429,00;27,87
1426,00;27,89
1423,00;27,87
1420,00;27,92
1417,00;27,92
1414,00;27,99
1411,00;28,08
1408,00;28,18
1405,00;28,25
1402,00;28,33
1399,00;28,42
1396,00;28,45
1393,00;28,54
1390,00;28,63
1387,00;28,67
1384,00;28,70
1381,00;28,73
1378,00;28,73
1375,00;28,75
1372,00;28,77
1369,00;28,84
1366,00;28,88
1363,00;28,89
1360,00;28,88
1357,00;28,94
1354,00;28,97
1351,00;29,01
1348,00;29,04
1345,00;29,08
1342,00;29,12
1339,00;29,10
1336,00;29,13
1333,00;29,21
1330,00;29,24
1327,00;29,26
1324,00;29,28
1321,00;29,30
1318,00;29,29
1315,00;29,31
1312,00;29,33
1309,00;29,35
1306,00;29,38
1303,00;29,40
1300,00;29,41
1297,00;29,42
1294,00;29,43
1291,00;29,44
1288,00;29,43
1285,00;29,43
1282,00;29,41
1279,00;29,38
1276,00;29,34
1273,00;29,27
1270,00;29,16
1267,00;29,03
1264,00;28,89
1261,00;28,76
1258,00;28,66
1255,00;28,58
1252,00;28,47
1249,00;28,34
1246,00;28,19
1243,00;28,04
1240,00;27,90
1237,00;27,75
1234,00;27,61
1231,00;27,48
1228,00;27,36
1225,00;27,24
1222,00;27,14
1219,00;27,05
1216,00;26,97
1213,00;26,90
1210,00;26,84
1207,00;26,77
1204,00;26,72
1201,00;26,67
1198,00;26,61
1195,00;26,55
1192,00;26,50
1189,00;26,44
1186,00;26,38
1183,00;26,31
1180,00;26,23
1177,00;26,15
1174,00;26,06
1171,00;25,96
1168,00;25,89
1165,00;25,83
1162,00;25,79
1159,00;25,73
1156,00;25,66
1153,00;25,57
1150,00;25,48
1147,00;25,37
1144,00;25,27
1141,00;25,19
1138,00;25,09
1135,00;25,02
1132,00;24,95
1129,00;24,90
1126,00;24,86
1123,00;24,83
1120,00;24,81
1117,00;24,81
1114,00;24,82
1111,00;24,86
1108,00;24,91
1105,00;24,97
1102,00;25,04
1099,00;25,11
1096,00;25,18
1093,00;25,24
1090,00;25,30
1087,00;25,35
1084,00;25,38
1081,00;25,41
1078,00;25,42
1075,00;25,41
1072,00;25,39
1069,00;25,36
1066,00;25,32
1063,00;25,27
1060,00;25,27
1057,00;25,32
1054,00;25,38
1051,00;25,45
1048,00;25,53
1045,00;25,64
1042,00;25,74
1039,00;25,84
1036,00;25,96
1033,00;26,07
1030,00;26,20
1027,00;26,32
1024,00;26,42
1021,00;26,49
1018,00;26,56
1015,00;26,62
1012,00;26,69
1009,00;26,73
1006,00;26,75
1003,00;26,77
1000,00;26,80
997,00;26,80
994,00;26,79
991,00;26,75
988,00;26,65
985,00;26,50
982,00;26,38
979,00;26,31
976,00;26,28
973,00;26,28
970,00;26,31
967,00;26,31
964,00;26,26
961,00;26,16
958,00;26,10
955,00;26,13
952,00;26,18
949,00;26,25
946,00;26,35
943,00;26,46
940,00;26,58
937,00;26,71
934,00;26,84
931,00;26,97
928,00;27,07
925,00;27,13
922,00;27,16
919,00;27,17
916,00;27,17
913,00;27,19
910,00;27,21
907,00;27,24
904,00;27,27
901,00;27,32
898,00;27,36
895,00;27,40
892,00;27,44
889,00;27,47
886,00;27,48
883,00;27,50
880,00;27,51
877,00;27,54
874,00;27,57
871,00;27,62
868,00;27,68
865,00;27,74
862,00;27,80
859,00;27,88
856,00;27,94
853,00;27,99
850,00;28,04
847,00;28,07
844,00;28,10
841,00;28,12
838,00;28,14
835,00;28,14
832,00;28,14
829,00;28,12
826,00;28,07
823,00;28,01
820,00;27,96
817,00;27,90
814,00;27,83
811,00;27,75
808,00;27,66
805,00;27,55
802,00;27,47
799,00;27,37
796,00;27,30
793,00;27,21
790,00;27,09
787,00;26,94
784,00;26,77
781,00;26,57
778,00;26,39
775,00;26,25
772,00;26,12
769,00;25,94
766,00;25,75
763,00;25,57
760,00;25,42
757,00;25,26
754,00;25,12
751,00;24,99
748,00;24,88
745,00;24,74
742,00;24,62
739,00;24,51
736,00;24,41
733,00;24,30
730,00;24,19
727,00;24,08
724,00;23,97
721,00;23,85
718,00;23,74
715,00;23,68
712,00;23,60
709,00;23,52
706,00;23,44
703,00;23,34
700,00;23,26
697,00;23,19
694,00;23,10
691,00;22,99
688,00;22,87
685,00;22,72
682,00;22,53
679,00;22,33
676,00;22,12
673,00;21,95
670,00;21,95
667,00;21,44
664,00;21,33
661,00;21,21
658,00;21,04
655,00;20,88
652,00;20,73
649,00;20,52
646,00;20,31
643,00;20,12
640,00;19,89
637,00;19,66
634,00;19,41
631,00;19,19
628,00;18,96
625,00;18,77
622,00;18,60
619,00;18,41
616,00;18,27
613,00;18,13
610,00;18,00
607,00;17,86
604,00;17,72
601,00;17,60
598,00;17,50
595,00;17,33
592,00;17,28
589,00;17,25
586,00;17,14
583,00;17,13
580,00;17,08
577,00;16,92
574,00;16,86
571,00;16,85
568,00;16,78
565,00;16,75
562,00;16,65
559,00;16,58
556,00;16,47
553,00;16,37
550,00;16,25
547,00;16,17
544,00;16,07
541,00;16,01
538,00;15,96
535,00;15,84
532,00;15,80
529,00;15,77
526,00;15,83
523,00;15,82
520,00;15,97
517,00;15,61
514,00;15,40
511,00;15,71
508,00;15,54
505,00;15,19
502,00;14,96
500,00;15,22