File: FTIR/LNB_28-10-2024/MoS2-NS-Sódio.csv
Criado como novo conjunto de dados;Amostra 020 por Analyst data segunda-feira, outubro 28 2024
cm-1;%T
4000,00;45,28
3997,00;45,30
3994,00;45,31
3991,00;45,32
3988,00;45,32
3985,00;45,32
3982,00;45,34
3979,00;45,36
3976,00;45,37
3973,00;45,38
3970,00;45,38
3967,00;45,38
3964,00;45,41
3961,00;45,43
3958,00;45,44
3955,00;45,45
3952,00;45,51
3949,00;45,53
3946,00;45,54
3943,00;45,52
3940,00;45,52
3937,00;45,52
3934,00;45,61
3931,00;45,60
3928,00;45,63
3925,00;45,64
3922,00;45,70
3919,00;45,68
3916,00;45,60
3913,00;45,59
3910,00;45,64
3907,00;45,84
3904,00;45,95
3901,00;45,86
3898,00;45,71
3895,00;45,81
3892,00;45,80
3889,00;45,94
3886,00;45,80
3883,00;46,03
3880,00;45,84
3877,00;45,95
3874,00;46,04
3871,00;46,10
3868,00;46,14
3865,00;46,02
3862,00;46,05
3859,00;46,09
3856,00;46,33
3853,00;46,18
3850,00;46,31
3847,00;46,08
3844,00;46,21
3841,00;46,46
3838,00;46,37
3835,00;46,39
3832,00;46,20
3829,00;46,27
3826,00;46,33
3823,00;46,51
3820,00;46,53
3817,00;46,36
3814,00;46,40
3811,00;46,35
3808,00;46,40
3805,00;46,68
3802,00;46,54
3799,00;46,75
3796,00;46,46
3793,00;46,43
3790,00;46,45
3787,00;46,55
3784,00;46,62
3781,00;46,66
3778,00;46,64
3775,00;46,62
3772,00;46,76
3769,00;46,81
3766,00;46,78
3763,00;46,88
3760,00;46,94
3757,00;47,06
3754,00;47,21
3751,00;47,36
3748,00;47,48
3745,00;47,07
3742,00;47,35
3739,00;47,36
3736,00;47,56
3733,00;47,37
3730,00;47,30
3727,00;47,30
3724,00;47,42
3721,00;47,38
3718,00;47,36
3715,00;47,55
3712,00;47,70
3709,00;47,62
3706,00;47,54
3703,00;47,58
3700,00;47,62
3697,00;47,62
3694,00;47,81
3691,00;48,03
3688,00;47,92
3685,00;47,91
3682,00;47,91
3679,00;48,22
3676,00;48,28
3673,00;48,43
3670,00;48,15
3667,00;48,19
3664,00;48,04
3661,00;48,12
3658,00;48,22
3655,00;48,30
3652,00;48,51
3649,00;48,64
3646,00;48,44
3643,00;48,18
3640,00;48,16
3637,00;48,17
3634,00;48,19
3631,00;48,31
3628,00;48,07
3625,00;47,96
3622,00;47,93
3619,00;47,89
3616,00;47,88
3613,00;47,70
3610,00;47,53
3607,00;47,32
3604,00;47,20
3601,00;47,14
3598,00;47,08
3595,00;46,93
3592,00;46,81
3589,00;46,74
3586,00;46,54
3583,00;46,32
3580,00;46,23
3577,00;46,15
3574,00;46,05
3571,00;46,06
3568,00;46,12
3565,00;45,93
3562,00;45,70
3559,00;45,58
3556,00;45,52
3553,00;45,49
3550,00;45,43
3547,00;45,38
3544,00;45,24
3541,00;45,12
3538,00;45,09
3535,00;45,02
3532,00;44,99
3529,00;45,00
3526,00;44,96
3523,00;44,83
3520,00;44,74
3517,00;44,68
3514,00;44,62
3511,00;44,61
3508,00;44,57
3505,00;44,53
3502,00;44,45
3499,00;44,34
3496,00;44,29
3493,00;44,24
3490,00;44,20
3487,00;44,15
3484,00;44,12
3481,00;44,06
3478,00;43,97
3475,00;43,93
3472,00;43,88
3469,00;43,80
3466,00;43,74
3463,00;43,72
3460,00;43,67
3457,00;43,61
3454,00;43,57
3451,00;43,54
3448,00;43,52
3445,00;43,46
3442,00;43,38
3439,00;43,32
3436,00;43,23
3433,00;43,19
3430,00;43,15
3427,00;43,11
3424,00;43,11
3421,00;43,08
3418,00;43,02
3415,00;42,96
3412,00;42,91
3409,00;42,87
3406,00;42,85
3403,00;42,82
3400,00;42,76
3397,00;42,75
3394,00;42,73
3391,00;42,68
3388,00;42,66
3385,00;42,67
3382,00;42,64
3379,00;42,61
3376,00;42,59
3373,00;42,58
3370,00;42,55
3367,00;42,53
3364,00;42,54
3361,00;42,53
3358,00;42,52
3355,00;42,51
3352,00;42,50
3349,00;42,48
3346,00;42,49
3343,00;42,49
3340,00;42,49
3337,00;42,48
3334,00;42,47
3331,00;42,47
3328,00;42,48
3325,00;42,47
3322,00;42,46
3319,00;42,45
3316,00;42,45
3313,00;42,45
3310,00;42,46
3307,00;42,44
3304,00;42,41
3301,00;42,39
3298,00;42,38
3295,00;42,37
3292,00;42,34
3289,00;42,30
3286,00;42,27
3283,00;42,25
3280,00;42,22
3277,00;42,22
3274,00;42,21
3271,00;42,17
3268,00;42,12
3265,00;42,09
3262,00;42,07
3259,00;42,05
3256,00;42,05
3253,00;42,01
3250,00;41,98
3247,00;41,98
3244,00;41,93
3241,00;41,89
3238,00;41,86
3235,00;41,86
3232,00;41,83
3229,00;41,77
3226,00;41,74
3223,00;41,72
3220,00;41,71
3217,00;41,67
3214,00;41,65
3211,00;41,64
3208,00;41,63
3205,00;41,61
3202,00;41,61
3199,00;41,62
3196,00;41,61
3193,00;41,62
3190,00;41,64
3187,00;41,65
3184,00;41,67
3181,00;41,69
3178,00;41,71
3175,00;41,73
3172,00;41,75
3169,00;41,78
3166,00;41,81
3163,00;41,84
3160,00;41,87
3157,00;41,92
3154,00;41,97
3151,00;42,00
3148,00;42,00
3145,00;42,04
3142,00;42,09
3139,00;42,13
3136,00;42,14
3133,00;42,18
3130,00;42,21
3127,00;42,24
3124,00;42,28
3121,00;42,34
3118,00;42,37
3115,00;42,38
3112,00;42,39
3109,00;42,42
3106,00;42,43
3103,00;42,46
3100,00;42,50
3097,00;42,50
3094,00;42,52
3091,00;42,55
3088,00;42,57
3085,00;42,60
3082,00;42,63
3079,00;42,64
3076,00;42,63
3073,00;42,63
3070,00;42,67
3067,00;42,70
3064,00;42,69
3061,00;42,70
3058,00;42,73
3055,00;42,74
3052,00;42,76
3049,00;42,78
3046,00;42,80
3043,00;42,82
3040,00;42,83
3037,00;42,86
3034,00;42,90
3031,00;42,91
3028,00;42,92
3025,00;42,95
3022,00;42,97
3019,00;43,01
3016,00;43,05
3013,00;43,08
3010,00;43,09
3007,00;43,11
3004,00;43,15
3001,00;43,18
2998,00;43,21
2995,00;43,24
2992,00;43,27
2989,00;43,27
2986,00;43,28
2983,00;43,28
2980,00;43,23
2977,00;43,14
2974,00;43,04
2971,00;42,93
2968,00;42,87
2965,00;42,83
2962,00;42,82
2959,00;42,84
2956,00;42,90
2953,00;42,97
2950,00;43,04
2947,00;43,12
2944,00;43,17
2941,00;43,21
2938,00;43,24
2935,00;43,26
2932,00;43,26
2929,00;43,25
2926,00;43,23
2923,00;43,21
2920,00;43,20
2917,00;43,20
2914,00;43,21
2911,00;43,23
2908,00;43,24
2905,00;43,28
2902,00;43,30
2899,00;43,33
2896,00;43,37
2893,00;43,38
2890,00;43,41
2887,00;43,43
2884,00;43,45
2881,00;43,48
2878,00;43,50
2875,00;43,53
2872,00;43,54
2869,00;43,54
2866,00;43,56
2863,00;43,59
2860,00;43,62
2857,00;43,65
2854,00;43,66
2851,00;43,68
2848,00;43,70
2845,00;43,72
2842,00;43,75
2839,00;43,79
2836,00;43,82
2833,00;43,84
2830,00;43,86
2827,00;43,89
2824,00;43,92
2821,00;43,95
2818,00;43,98
2815,00;44,01
2812,00;44,05
2809,00;44,08
2806,00;44,10
2803,00;44,13
2800,00;44,17
2797,00;44,20
2794,00;44,22
2791,00;44,26
2788,00;44,29
2785,00;44,31
2782,00;44,34
2779,00;44,37
2776,00;44,41
2773,00;44,44
2770,00;44,46
2767,00;44,49
2764,00;44,52
2761,00;44,55
2758,00;44,58
2755,00;44,61
2752,00;44,64
2749,00;44,68
2746,00;44,70
2743,00;44,72
2740,00;44,75
2737,00;44,78
2734,00;44,80
2731,00;44,83
2728,00;44,87
2725,00;44,90
2722,00;44,92
2719,00;44,94
2716,00;44,97
2713,00;44,99
2710,00;45,03
2707,00;45,05
2704,00;45,08
2701,00;45,11
2698,00;45,14
2695,00;45,16
2692,00;45,19
2689,00;45,22
2686,00;45,24
2683,00;45,28
2680,00;45,31
2677,00;45,33
2674,00;45,35
2671,00;45,38
2668,00;45,40
2665,00;45,42
2662,00;45,45
2659,00;45,50
2656,00;45,55
2653,00;45,61
2650,00;45,66
2647,00;45,72
2644,00;45,78
2641,00;45,84
2638,00;45,89
2635,00;45,94
2632,00;46,00
2629,00;46,04
2626,00;46,09
2623,00;46,13
2620,00;46,18
2617,00;46,23
2614,00;46,27
2611,00;46,31
2608,00;46,34
2605,00;46,38
2602,00;46,42
2599,00;46,46
2596,00;46,49
2593,00;46,53
2590,00;46,56
2587,00;46,58
2584,00;46,62
2581,00;46,66
2578,00;46,68
2575,00;46,72
2572,00;46,76
2569,00;46,78
2566,00;46,81
2563,00;46,84
2560,00;46,87
2557,00;46,90
2554,00;46,92
2551,00;46,95
2548,00;46,98
2545,00;47,01
2542,00;47,03
2539,00;47,06
2536,00;47,09
2533,00;47,12
2530,00;47,14
2527,00;47,16
2524,00;47,19
2521,00;47,21
2518,00;47,23
2515,00;47,26
2512,00;47,29
2509,00;47,31
2506,00;47,32
2503,00;47,35
2500,00;47,37
2497,00;47,40
2494,00;47,42
2491,00;47,44
2488,00;47,47
2485,00;47,49
2482,00;47,51
2479,00;47,54
2476,00;47,56
2473,00;47,59
2470,00;47,61
2467,00;47,63
2464,00;47,64
2461,00;47,66
2458,00;47,69
2455,00;47,72
2452,00;47,75
2449,00;47,77
2446,00;47,79
2443,00;47,82
2440,00;47,84
2437,00;47,87
2434,00;47,89
2431,00;47,91
2428,00;47,94
2425,00;47,96
2422,00;47,97
2419,00;48,00
2416,00;48,02
2413,00;48,05
2410,00;48,06
2407,00;48,09
2404,00;48,11
2401,00;48,12
2398,00;48,14
2395,00;48,16
2392,00;48,17
2389,00;48,19
2386,00;48,23
2383,00;48,30
2380,00;48,40
2377,00;48,49
2374,00;48,55
2371,00;48,59
2368,00;48,60
2365,00;48,58
2362,00;48,48
2359,00;48,36
2356,00;48,24
2353,00;48,06
2350,00;48,12
2347,00;48,49
2344,00;48,39
2341,00;48,54
2338,00;48,45
2335,00;48,43
2332,00;48,47
2329,00;48,42
2326,00;48,45
2323,00;48,48
2320,00;48,53
2317,00;48,58
2314,00;48,65
2311,00;48,68
2308,00;48,73
2305,00;48,78
2302,00;48,82
2299,00;48,87
2296,00;48,92
2293,00;48,94
2290,00;48,97
2287,00;49,00
2284,00;49,06
2281,00;49,11
2278,00;49,16
2275,00;49,19
2272,00;49,23
2269,00;49,26
2266,00;49,29
2263,00;49,32
2260,00;49,34
2257,00;49,37
2254,00;49,42
2251,00;49,45
2248,00;49,46
2245,00;49,49
2242,00;49,52
2239,00;49,55
2236,00;49,57
2233,00;49,60
2230,00;49,64
2227,00;49,67
2224,00;49,69
2221,00;49,71
2218,00;49,73
2215,00;49,76
2212,00;49,80
2209,00;49,82
2206,00;49,83
2203,00;49,86
2200,00;49,88
2197,00;49,90
2194,00;49,93
2191,00;49,95
2188,00;49,97
2185,00;50,00
2182,00;50,04
2179,00;50,07
2176,00;50,12
2173,00;50,16
2170,00;50,16
2167,00;50,17
2164,00;50,19
2161,00;50,26
2158,00;50,42
2155,00;50,40
2152,00;50,38
2149,00;50,39
2146,00;50,40
2143,00;50,42
2140,00;50,42
2137,00;50,43
2134,00;50,47
2131,00;50,46
2128,00;50,46
2125,00;50,45
2122,00;50,46
2119,00;50,47
2116,00;50,47
2113,00;50,49
2110,00;50,51
2107,00;50,53
2104,00;50,55
2101,00;50,57
2098,00;50,60
2095,00;50,65
2092,00;50,67
2089,00;50,67
2086,00;50,69
2083,00;50,70
2080,00;50,72
2077,00;50,75
2074,00;50,79
2071,00;50,82
2068,00;50,84
2065,00;50,87
2062,00;50,90
2059,00;50,92
2056,00;50,93
2053,00;50,97
2050,00;51,00
2047,00;51,09
2044,00;51,16
2041,00;51,19
2038,00;51,22
2035,00;51,26
2032,00;51,30
2029,00;51,33
2026,00;51,34
2023,00;51,36
2020,00;51,39
2017,00;51,38
2014,00;51,42
2011,00;51,44
2008,00;51,46
2005,00;51,47
2002,00;51,47
1999,00;51,49
1996,00;51,53
1993,00;51,57
1990,00;51,59
1987,00;51,61
1984,00;51,63
1981,00;51,65
1978,00;51,72
1975,00;51,78
1972,00;51,82
1969,00;51,88
1966,00;51,88
1963,00;51,90
1960,00;51,94
1957,00;51,98
1954,00;52,00
1951,00;52,03
1948,00;52,08
1945,00;52,14
1942,00;52,13
1939,00;52,17
1936,00;52,21
1933,00;52,25
1930,00;52,28
1927,00;52,32
1924,00;52,37
1921,00;52,42
1918,00;52,42
1915,00;52,47
1912,00;52,52
1909,00;52,56
1906,00;52,59
1903,00;52,63
1900,00;52,66
1897,00;52,73
1894,00;52,77
1891,00;52,82
1888,00;52,83
1885,00;52,87
1882,00;52,91
1879,00;52,94
1876,00;52,98
1873,00;53,07
1870,00;53,16
1867,00;53,18
1864,00;53,15
1861,00;53,19
1858,00;53,24
1855,00;53,29
1852,00;53,34
1849,00;53,41
1846,00;53,49
1843,00;53,49
1840,00;53,52
1837,00;53,57
1834,00;53,64
1831,00;53,72
1828,00;53,83
1825,00;53,76
1822,00;53,80
1819,00;53,84
1816,00;53,85
1813,00;53,95
1810,00;53,99
1807,00;54,01
1804,00;54,08
1801,00;54,13
1798,00;54,24
1795,00;54,31
1792,00;54,34
1789,00;54,40
1786,00;54,41
1783,00;54,51
1780,00;54,59
1777,00;54,69
1774,00;54,81
1771,00;54,99
1768,00;54,83
1765,00;54,93
1762,00;54,96
1759,00;55,08
1756,00;55,08
1753,00;55,17
1750,00;55,27
1747,00;55,33
1744,00;55,32
1741,00;55,33
1738,00;55,45
1735,00;55,35
1732,00;55,55
1729,00;55,31
1726,00;55,27
1723,00;55,26
1720,00;55,27
1717,00;55,34
1714,00;55,21
1711,00;54,97
1708,00;54,93
1705,00;54,90
1702,00;54,75
1699,00;54,80
1696,00;54,47
1693,00;54,43
1690,00;54,06
1687,00;53,83
1684,00;53,57
1681,00;53,14
1678,00;52,55
1675,00;52,04
1672,00;51,69
1669,00;51,07
1666,00;50,50
1663,00;49,93
1660,00;49,35
1657,00;48,87
1654,00;48,46
1651,00;47,88
1648,00;47,26
1645,00;46,41
1642,00;45,82
1639,00;45,41
1636,00;44,90
1633,00;44,22
1630,00;43,77
1627,00;43,35
1624,00;42,98
1621,00;42,51
1618,00;42,25
1615,00;41,77
1612,00;41,46
1609,00;41,27
1606,00;41,11
1603,00;41,09
1600,00;41,11
1597,00;41,25
1594,00;41,42
1591,00;41,64
1588,00;41,89
1585,00;42,15
1582,00;42,40
1579,00;42,77
1576,00;42,98
1573,00;43,16
1570,00;43,40
1567,00;43,60
1564,00;43,95
1561,00;44,55
1558,00;44,80
1555,00;45,00
1552,00;45,34
1549,00;45,61
1546,00;46,05
1543,00;46,53
1540,00;46,86
1537,00;47,07
1534,00;47,23
1531,00;47,43
1528,00;47,73
1525,00;48,00
1522,00;48,29
1519,00;48,45
1516,00;48,53
1513,00;48,66
1510,00;49,00
1507,00;49,18
1504,00;49,35
1501,00;49,43
1498,00;49,61
1495,00;49,69
1492,00;49,87
1489,00;49,94
1486,00;49,92
1483,00;49,96
1480,00;49,97
1477,00;49,98
1474,00;49,92
1471,00;49,62
1468,00;49,44
1465,00;49,18
1462,00;48,88
1459,00;48,77
1456,00;48,07
1453,00;47,73
1450,00;47,46
1447,00;47,14
1444,00;46,96
1441,00;46,85
1438,00;46,77
1435,00;46,52
1432,00;46,51
1429,00;46,38
1426,00;46,30
1423,00;46,19
1420,00;46,16
1417,00;45,97
1414,00;46,01
1411,00;46,15
1408,00;46,34
1405,00;46,52
1402,00;46,70
1399,00;46,91
1396,00;47,00
1393,00;47,02
1390,00;47,12
1387,00;47,01
1384,00;46,81
1381,00;46,63
1378,00;46,48
1375,00;46,41
1372,00;46,30
1369,00;46,38
1366,00;46,50
1363,00;46,62
1360,00;46,65
1357,00;46,81
1354,00;46,91
1351,00;47,01
1348,00;47,09
1345,00;47,16
1342,00;47,26
1339,00;47,24
1336,00;47,27
1333,00;47,38
1330,00;47,43
1327,00;47,48
1324,00;47,52
1321,00;47,58
1318,00;47,60
1315,00;47,62
1312,00;47,63
1309,00;47,65
1306,00;47,67
1303,00;47,70
1300,00;47,72
1297,00;47,73
1294,00;47,73
1291,00;47,77
1288,00;47,84
1285,00;47,95
1282,00;48,06
1279,00;48,15
1276,00;48,22
1273,00;48,27
1270,00;48,29
1267,00;48,30
1264,00;48,28
1261,00;48,24
1258,00;48,18
1255,00;48,14
1252,00;48,10
1249,00;48,05
1246,00;48,00
1243,00;47,96
1240,00;47,95
1237,00;47,97
1234,00;48,02
1231,00;48,09
1228,00;48,17
1225,00;48,24
1222,00;48,29
1219,00;48,34
1216,00;48,39
1213,00;48,43
1210,00;48,47
1207,00;48,51
1204,00;48,58
1201,00;48,66
1198,00;48,78
1195,00;48,93
1192,00;49,10
1189,00;49,27
1186,00;49,46
1183,00;49,64
1180,00;49,81
1177,00;49,97
1174,00;50,14
1171,00;50,25
1168,00;50,26
1165,00;50,19
1162,00;50,08
1159,00;50,02
1156,00;50,02
1153,00;50,07
1150,00;50,15
1147,00;50,23
1144,00;50,28
1141,00;50,31
1138,00;50,31
1135,00;50,27
1132,00;50,16
1129,00;49,97
1126,00;49,71
1123,00;49,49
1120,00;49,39
1117,00;49,35
1114,00;49,32
1111,00;49,28
1108,00;49,22
1105,00;49,17
1102,00;49,14
1099,00;49,12
1096,00;49,13
1093,00;49,15
1090,00;49,19
1087,00;49,25
1084,00;49,34
1081,00;49,44
1078,00;49,56
1075,00;49,72
1072,00;49,92
1069,00;50,16
1066,00;50,42
1063,00;50,68
1060,00;50,91
1057,00;51,11
1054,00;51,26
1051,00;51,31
1048,00;51,13
1045,00;50,78
1042,00;50,67
1039,00;50,98
1036,00;51,42
1033,00;51,74
1030,00;51,82
1027,00;51,55
1024,00;51,03
1021,00;50,66
1018,00;50,82
1015,00;51,37
1012,00;52,03
1009,00;52,61
1006,00;53,08
1003,00;53,49
1000,00;53,84
997,00;54,16
994,00;54,46
991,00;54,74
988,00;54,97
985,00;55,18
982,00;55,36
979,00;55,48
976,00;55,50
973,00;55,39
970,00;55,13
967,00;54,71
964,00;54,14
961,00;53,39
958,00;52,52
955,00;51,52
952,00;50,43
949,00;49,30
946,00;48,31
943,00;47,64
940,00;47,28
937,00;47,10
934,00;47,05
931,00;47,07
928,00;47,13
925,00;47,15
922,00;47,12
919,00;47,06
916,00;47,03
913,00;47,05
910,00;47,06
907,00;47,10
904,00;47,15
901,00;47,23
898,00;47,34
895,00;47,49
892,00;47,66
889,00;47,87
886,00;48,08
883,00;48,24
880,00;48,26
877,00;48,18
874,00;48,09
871,00;48,10
868,00;48,20
865,00;48,35
862,00;48,50
859,00;48,63
856,00;48,77
853,00;48,95
850,00;49,12
847,00;49,26
844,00;49,38
841,00;49,50
838,00;49,58
835,00;49,63
832,00;49,66
829,00;49,69
826,00;49,69
823,00;49,65
820,00;49,49
817,00;49,11
814,00;48,63
811,00;48,36
808,00;48,34
805,00;48,36
802,00;48,36
799,00;48,30
796,00;48,27
793,00;48,25
790,00;48,27
787,00;48,25
784,00;48,20
781,00;48,05
778,00;47,88
775,00;47,67
772,00;47,52
769,00;47,36
766,00;47,24
763,00;47,11
760,00;47,03
757,00;46,95
754,00;46,90
751,00;46,83
748,00;46,75
745,00;46,65
742,00;46,51
739,00;46,37
736,00;46,22
733,00;46,06
730,00;45,87
727,00;45,68
724,00;45,50
721,00;45,31
718,00;45,12
715,00;44,97
712,00;44,82
709,00;44,73
706,00;44,68
703,00;44,62
700,00;44,55
697,00;44,50
694,00;44,44
691,00;44,39
688,00;44,30
685,00;44,24
682,00;44,14
679,00;44,08
676,00;43,98
673,00;43,88
670,00;43,96
667,00;43,61
664,00;43,53
661,00;43,52
658,00;43,41
655,00;43,31
652,00;43,20
649,00;43,09
646,00;42,98
643,00;42,81
640,00;42,64
637,00;42,41
634,00;42,15
631,00;41,84
628,00;41,58
625,00;41,33
622,00;41,18
619,00;41,11
616,00;41,10
613,00;41,15
610,00;41,22
607,00;41,31
604,00;41,40
601,00;41,45
598,00;41,47
595,00;41,43
592,00;41,28
589,00;41,09
586,00;40,99
583,00;40,96
580,00;40,95
577,00;40,87
574,00;40,83
571,00;40,73
568,00;40,54
565,00;40,32
562,00;40,12
559,00;39,89
556,00;39,68
553,00;39,47
550,00;39,27
547,00;39,20
544,00;39,16
541,00;39,05
538,00;39,06
535,00;39,32
532,00;39,21
529,00;39,20
526,00;39,23
523,00;39,42
520,00;39,91
517,00;39,76
514,00;39,45
511,00;39,62
508,00;40,90
505,00;41,34
502,00;40,62
500,00;39,97