File: FTIR/LNB_28-10-2024/MoS2 pristine.csv
Criado como novo conjunto de dados;Amostra 001 por Analyst data segunda-feira, outubro 28 2024
cm-1;%T
4000,00;25,19
3997,00;24,65
3994,00;24,27
3991,00;24,43
3988,00;25,05
3985,00;25,90
3982,00;26,69
3979,00;27,17
3976,00;27,16
3973,00;26,69
3970,00;25,88
3967,00;25,02
3964,00;24,47
3961,00;24,39
3958,00;24,82
3955,00;25,62
3952,00;26,55
3949,00;27,24
3946,00;27,46
3943,00;27,10
3940,00;26,38
3937,00;25,48
3934,00;24,89
3931,00;24,56
3928,00;24,80
3925,00;25,45
3922,00;26,43
3919,00;27,13
3916,00;27,40
3913,00;27,25
3910,00;26,75
3907,00;26,27
3904,00;25,64
3901,00;24,97
3898,00;24,68
3895,00;25,25
3892,00;26,00
3889,00;27,11
3886,00;27,42
3883,00;27,97
3880,00;27,25
3877,00;26,65
3874,00;25,91
3871,00;25,33
3868,00;25,09
3865,00;25,16
3862,00;25,92
3859,00;26,78
3856,00;27,85
3853,00;28,05
3850,00;28,11
3847,00;27,02
3844,00;26,35
3841,00;25,90
3838,00;25,30
3835,00;25,38
3832,00;25,53
3829,00;26,42
3826,00;27,28
3823,00;28,13
3820,00;28,20
3817,00;27,60
3814,00;26,70
3811,00;25,73
3808,00;25,15
3805,00;25,31
3802,00;25,45
3799,00;26,60
3796,00;26,91
3793,00;27,47
3790,00;27,70
3787,00;27,65
3784,00;27,08
3781,00;26,29
3778,00;25,36
3775,00;24,87
3772,00;25,13
3769,00;25,79
3766,00;26,60
3763,00;27,53
3760,00;28,04
3757,00;28,22
3754,00;28,06
3751,00;27,48
3748,00;26,65
3745,00;25,42
3742,00;25,52
3739,00;25,77
3736,00;26,69
3733,00;27,35
3730,00;27,73
3727,00;27,87
3724,00;27,80
3721,00;27,02
3718,00;26,06
3715,00;25,65
3712,00;25,54
3709,00;25,47
3706,00;25,82
3703,00;26,60
3700,00;27,39
3697,00;27,77
3694,00;27,99
3691,00;27,86
3688,00;26,72
3685,00;25,76
3682,00;25,15
3679,00;25,48
3676,00;26,04
3673,00;27,17
3670,00;27,48
3667,00;28,09
3664,00;27,89
3661,00;27,66
3658,00;27,13
3655,00;26,25
3652,00;25,95
3649,00;25,78
3646,00;25,74
3643,00;25,97
3640,00;26,73
3637,00;27,47
3634,00;27,90
3631,00;28,13
3628,00;27,12
3625,00;26,21
3622,00;25,56
3619,00;25,12
3616,00;25,27
3613,00;25,72
3610,00;26,51
3607,00;27,09
3604,00;27,54
3601,00;27,67
3598,00;27,37
3595,00;26,55
3592,00;25,65
3589,00;25,09
3586,00;24,76
3583,00;24,90
3580,00;25,56
3577,00;26,43
3574,00;27,11
3571,00;27,62
3568,00;27,73
3565,00;26,96
3562,00;25,89
3559,00;24,98
3556,00;24,53
3553,00;24,64
3550,00;25,24
3547,00;26,09
3544,00;26,84
3541,00;27,17
3538,00;27,21
3535,00;26,77
3532,00;26,04
3529,00;25,30
3526,00;24,71
3523,00;24,43
3520,00;24,68
3517,00;25,36
3514,00;26,20
3511,00;26,89
3508,00;27,15
3505,00;26,97
3502,00;26,32
3499,00;25,40
3496,00;24,62
3493,00;24,19
3490,00;24,32
3487,00;24,91
3484,00;25,75
3481,00;26,52
3478,00;26,89
3475,00;26,85
3472,00;26,39
3469,00;25,62
3466,00;24,77
3463,00;24,20
3460,00;24,09
3457,00;24,45
3454,00;25,19
3451,00;26,02
3448,00;26,68
3445,00;26,87
3442,00;26,53
3439,00;25,86
3436,00;25,02
3433,00;24,29
3430,00;23,97
3427,00;24,13
3424,00;24,77
3421,00;25,62
3418,00;26,31
3415,00;26,67
3412,00;26,60
3409,00;26,08
3406,00;25,30
3403,00;24,53
3400,00;24,01
3397,00;23,94
3394,00;24,42
3391,00;25,17
3388,00;25,93
3385,00;26,49
3382,00;26,63
3379,00;26,30
3376,00;25,60
3373,00;24,79
3370,00;24,15
3367,00;23,87
3364,00;24,10
3361,00;24,77
3358,00;25,56
3355,00;26,25
3352,00;26,60
3349,00;26,44
3346,00;25,89
3343,00;25,11
3340,00;24,36
3337,00;23,89
3334,00;23,88
3331,00;24,39
3328,00;25,18
3325,00;25,95
3322,00;26,43
3319,00;26,52
3316,00;26,15
3313,00;25,45
3310,00;24,67
3307,00;24,03
3304,00;23,78
3301,00;24,08
3298,00;24,79
3295,00;25,61
3292,00;26,26
3289,00;26,50
3286,00;26,32
3283,00;25,74
3280,00;24,94
3277,00;24,23
3274,00;23,82
3271,00;23,89
3268,00;24,39
3265,00;25,19
3262,00;25,95
3259,00;26,41
3256,00;26,45
3253,00;26,00
3250,00;25,27
3247,00;24,49
3244,00;23,89
3241,00;23,74
3238,00;24,10
3235,00;24,83
3232,00;25,62
3229,00;26,22
3226,00;26,45
3223,00;26,22
3220,00;25,61
3217,00;24,80
3214,00;24,09
3211,00;23,73
3208,00;23,87
3205,00;24,44
3202,00;25,25
3199,00;26,00
3196,00;26,42
3193,00;26,37
3190,00;25,90
3187,00;25,16
3184,00;24,38
3181,00;23,85
3178,00;23,78
3175,00;24,19
3172,00;24,92
3169,00;25,72
3166,00;26,30
3163,00;26,47
3160,00;26,19
3157,00;25,55
3154,00;24,77
3151,00;24,07
3148,00;23,77
3145,00;23,99
3142,00;24,63
3139,00;25,44
3136,00;26,13
3133,00;26,52
3130,00;26,44
3127,00;25,92
3124,00;25,18
3121,00;24,43
3118,00;23,94
3115,00;23,90
3112,00;24,36
3109,00;25,14
3106,00;25,90
3103,00;26,45
3100,00;26,58
3097,00;26,23
3094,00;25,55
3091,00;24,75
3088,00;24,10
3085,00;23,87
3082,00;24,16
3079,00;24,83
3076,00;25,60
3073,00;26,26
3070,00;26,60
3067,00;26,49
3064,00;25,90
3061,00;25,10
3058,00;24,37
3055,00;23,93
3052,00;23,98
3049,00;24,50
3046,00;25,28
3043,00;26,05
3040,00;26,53
3037,00;26,60
3034,00;26,25
3031,00;25,52
3028,00;24,70
3025,00;24,11
3022,00;23,93
3019,00;24,28
3016,00;24,99
3013,00;25,80
3010,00;26,42
3007,00;26,67
3004,00;26,48
3001,00;25,89
2998,00;25,11
2995,00;24,39
2992,00;24,01
2989,00;24,11
2986,00;24,68
2983,00;25,49
2980,00;26,24
2977,00;26,68
2974,00;26,69
2971,00;26,25
2968,00;25,51
2965,00;24,72
2962,00;24,14
2959,00;24,01
2956,00;24,39
2953,00;25,13
2950,00;25,92
2947,00;26,54
2944,00;26,75
2941,00;26,49
2938,00;25,88
2935,00;25,08
2932,00;24,39
2929,00;24,05
2926,00;24,20
2923,00;24,78
2920,00;25,57
2917,00;26,27
2914,00;26,66
2911,00;26,60
2908,00;26,13
2905,00;25,39
2902,00;24,63
2899,00;24,13
2896,00;24,09
2893,00;24,52
2890,00;25,29
2887,00;26,09
2884,00;26,65
2881,00;26,81
2878,00;26,52
2875,00;25,87
2872,00;25,06
2869,00;24,39
2866,00;24,13
2863,00;24,37
2860,00;25,03
2857,00;25,83
2854,00;26,51
2851,00;26,84
2848,00;26,72
2845,00;26,19
2842,00;25,43
2839,00;24,69
2836,00;24,22
2833,00;24,25
2830,00;24,74
2827,00;25,53
2824,00;26,32
2821,00;26,84
2818,00;26,94
2815,00;26,59
2812,00;25,90
2809,00;25,10
2806,00;24,48
2803,00;24,27
2800,00;24,58
2797,00;25,26
2794,00;26,07
2791,00;26,74
2788,00;27,04
2785,00;26,87
2782,00;26,31
2779,00;25,52
2776,00;24,79
2773,00;24,37
2770,00;24,45
2767,00;24,99
2764,00;25,78
2761,00;26,54
2758,00;27,02
2755,00;27,06
2752,00;26,66
2749,00;25,94
2746,00;25,14
2743,00;24,55
2740,00;24,41
2737,00;24,76
2734,00;25,48
2731,00;26,29
2728,00;26,93
2725,00;27,16
2722,00;26,94
2719,00;26,33
2716,00;25,53
2713,00;24,82
2710,00;24,46
2707,00;24,60
2704,00;25,18
2701,00;25,99
2698,00;26,72
2695,00;27,15
2692,00;27,14
2689,00;26,68
2686,00;25,93
2683,00;25,15
2680,00;24,61
2677,00;24,51
2674,00;24,92
2671,00;25,66
2668,00;26,47
2665,00;27,05
2662,00;27,25
2659,00;27,00
2656,00;26,36
2653,00;25,57
2650,00;24,89
2647,00;24,58
2644,00;24,79
2641,00;25,42
2638,00;26,24
2635,00;26,96
2632,00;27,35
2629,00;27,28
2626,00;26,78
2623,00;26,01
2620,00;25,23
2617,00;24,73
2614,00;24,71
2611,00;25,17
2608,00;25,93
2605,00;26,73
2602,00;27,28
2599,00;27,40
2596,00;27,09
2593,00;26,41
2590,00;25,60
2587,00;24,93
2584,00;24,69
2581,00;24,95
2578,00;25,61
2575,00;26,43
2572,00;27,12
2569,00;27,44
2566,00;27,30
2563,00;26,75
2560,00;25,97
2557,00;25,21
2554,00;24,76
2551,00;24,80
2548,00;25,31
2545,00;26,09
2542,00;26,87
2539,00;27,36
2536,00;27,44
2533,00;27,05
2530,00;26,34
2527,00;25,53
2524,00;24,91
2521,00;24,73
2518,00;25,05
2515,00;25,74
2512,00;26,55
2509,00;27,19
2506,00;27,46
2503,00;27,27
2500,00;26,68
2497,00;25,88
2494,00;25,15
2491,00;24,76
2488,00;24,86
2485,00;25,41
2482,00;26,21
2479,00;26,95
2476,00;27,40
2473,00;27,41
2470,00;26,98
2467,00;26,25
2464,00;25,44
2461,00;24,86
2458,00;24,74
2455,00;25,12
2452,00;25,84
2449,00;26,64
2446,00;27,26
2443,00;27,46
2440,00;27,22
2437,00;26,59
2434,00;25,78
2431,00;25,08
2428,00;24,74
2425,00;24,90
2422,00;25,49
2419,00;26,29
2416,00;27,02
2413,00;27,41
2410,00;27,37
2407,00;26,89
2404,00;26,12
2401,00;25,34
2398,00;24,81
2395,00;24,75
2392,00;25,17
2389,00;25,88
2386,00;26,51
2383,00;26,65
2380,00;26,42
2377,00;26,53
2374,00;26,96
2371,00;27,15
2368,00;27,10
2365,00;27,07
2362,00;27,25
2359,00;27,57
2356,00;27,82
2353,00;27,67
2350,00;26,63
2347,00;27,51
2344,00;27,21
2341,00;27,32
2338,00;27,43
2335,00;26,99
2332,00;26,76
2329,00;26,39
2326,00;26,69
2323,00;27,06
2320,00;26,97
2317,00;26,84
2314,00;26,21
2311,00;24,79
2308,00;23,68
2305,00;23,25
2302,00;23,30
2299,00;23,65
2296,00;24,49
2293,00;25,52
2290,00;26,47
2287,00;26,99
2284,00;27,05
2281,00;26,62
2278,00;25,85
2275,00;25,12
2272,00;24,71
2269,00;24,79
2266,00;25,30
2263,00;26,06
2260,00;26,83
2257,00;27,34
2254,00;27,41
2251,00;27,01
2248,00;26,32
2245,00;25,54
2242,00;24,94
2239,00;24,81
2236,00;25,16
2233,00;25,86
2230,00;26,67
2227,00;27,32
2224,00;27,57
2221,00;27,38
2218,00;26,77
2215,00;25,96
2212,00;25,23
2209,00;24,84
2206,00;24,97
2203,00;25,56
2200,00;26,37
2197,00;27,08
2194,00;27,50
2191,00;27,51
2188,00;27,08
2185,00;26,36
2182,00;25,55
2179,00;24,99
2176,00;24,91
2173,00;25,30
2170,00;26,02
2167,00;26,85
2164,00;27,47
2161,00;27,74
2158,00;27,32
2155,00;26,53
2152,00;25,75
2149,00;25,10
2146,00;24,79
2143,00;24,98
2140,00;25,63
2137,00;26,45
2134,00;27,10
2131,00;27,43
2128,00;27,36
2125,00;26,89
2122,00;26,16
2119,00;25,39
2116,00;24,87
2113,00;24,87
2110,00;25,33
2107,00;26,10
2104,00;26,85
2101,00;27,41
2098,00;27,55
2095,00;27,20
2092,00;26,52
2089,00;25,76
2086,00;25,14
2083,00;24,87
2080,00;25,13
2077,00;25,79
2074,00;26,61
2071,00;27,30
2068,00;27,63
2065,00;27,54
2062,00;26,97
2059,00;26,17
2056,00;25,45
2053,00;25,01
2050,00;25,12
2047,00;25,59
2044,00;26,35
2041,00;27,14
2038,00;27,66
2035,00;27,75
2032,00;27,34
2029,00;26,62
2026,00;25,80
2023,00;25,20
2020,00;25,00
2017,00;25,37
2014,00;26,05
2011,00;26,81
2008,00;27,39
2005,00;27,61
2002,00;27,40
1999,00;26,87
1996,00;26,11
1993,00;25,48
1990,00;25,16
1987,00;25,19
1984,00;25,68
1981,00;26,49
1978,00;27,28
1975,00;27,65
1972,00;27,65
1969,00;27,28
1966,00;26,57
1963,00;25,73
1960,00;25,10
1957,00;24,97
1954,00;25,36
1951,00;26,05
1948,00;26,84
1945,00;27,54
1942,00;27,80
1939,00;27,48
1936,00;26,77
1933,00;25,99
1930,00;25,30
1927,00;24,97
1924,00;25,20
1921,00;25,93
1918,00;26,59
1915,00;27,36
1912,00;27,67
1909,00;27,71
1906,00;27,20
1903,00;26,37
1900,00;25,58
1897,00;25,10
1894,00;25,11
1891,00;25,51
1888,00;26,34
1885,00;27,01
1882,00;27,54
1879,00;27,68
1876,00;27,39
1873,00;26,79
1870,00;26,19
1867,00;25,62
1864,00;25,09
1861,00;25,23
1858,00;25,88
1855,00;26,65
1852,00;27,33
1849,00;27,78
1846,00;27,89
1843,00;27,27
1840,00;26,41
1837,00;25,60
1834,00;25,15
1831,00;25,21
1828,00;25,93
1825,00;26,53
1822,00;27,26
1819,00;27,58
1816,00;27,68
1813,00;27,44
1810,00;26,83
1807,00;25,95
1804,00;25,33
1801,00;25,30
1798,00;25,56
1795,00;26,21
1792,00;27,02
1789,00;27,75
1786,00;27,76
1783,00;27,74
1780,00;27,20
1777,00;26,41
1774,00;25,79
1771,00;25,42
1768,00;25,34
1765,00;25,79
1762,00;26,47
1759,00;27,44
1756,00;27,83
1753,00;27,91
1750,00;27,82
1747,00;27,14
1744,00;26,20
1741,00;25,49
1738,00;25,29
1735,00;25,44
1732,00;26,67
1729,00;27,10
1726,00;27,46
1723,00;27,73
1720,00;27,76
1717,00;27,42
1714,00;26,55
1711,00;25,50
1708,00;25,18
1705,00;25,49
1702,00;25,99
1699,00;27,02
1696,00;27,45
1693,00;27,95
1690,00;27,79
1687,00;27,66
1684,00;26,90
1681,00;26,19
1678,00;25,34
1675,00;25,05
1672,00;25,66
1669,00;26,36
1666,00;27,05
1663,00;27,42
1660,00;27,68
1657,00;27,48
1654,00;27,18
1651,00;26,33
1648,00;25,72
1645,00;25,20
1642,00;25,11
1639,00;25,80
1636,00;26,65
1633,00;27,42
1630,00;27,52
1627,00;27,58
1624,00;27,14
1621,00;26,38
1618,00;25,56
1615,00;25,04
1612,00;24,95
1609,00;25,44
1606,00;26,21
1603,00;26,97
1600,00;27,51
1597,00;27,64
1594,00;27,39
1591,00;26,72
1588,00;25,90
1585,00;25,23
1582,00;25,02
1579,00;25,41
1576,00;26,09
1573,00;27,08
1570,00;27,68
1567,00;28,19
1564,00;27,99
1561,00;27,83
1558,00;27,19
1555,00;26,17
1552,00;25,66
1549,00;25,77
1546,00;26,21
1543,00;27,57
1540,00;28,31
1537,00;28,68
1534,00;28,52
1531,00;28,18
1528,00;27,53
1525,00;26,97
1522,00;26,39
1519,00;26,30
1516,00;26,57
1513,00;26,94
1510,00;28,15
1507,00;29,25
1504,00;28,85
1501,00;28,30
1498,00;27,84
1495,00;26,84
1492,00;26,23
1489,00;26,28
1486,00;26,03
1483,00;26,25
1480,00;27,10
1477,00;27,98
1474,00;28,84
1471,00;28,66
1468,00;27,87
1465,00;27,17
1462,00;26,35
1459,00;26,18
1456,00;26,20
1453,00;26,20
1450,00;26,72
1447,00;27,59
1444,00;28,04
1441,00;28,24
1438,00;28,16
1435,00;27,64
1432,00;26,78
1429,00;26,05
1426,00;25,64
1423,00;25,96
1420,00;26,51
1417,00;27,73
1414,00;27,96
1411,00;28,30
1408,00;28,28
1405,00;27,92
1402,00;27,11
1399,00;26,52
1396,00;26,12
1393,00;25,90
1390,00;26,09
1387,00;27,03
1384,00;27,70
1381,00;28,15
1378,00;28,42
1375,00;28,31
1372,00;27,57
1369,00;26,63
1366,00;25,95
1363,00;25,92
1360,00;26,09
1357,00;26,48
1354,00;27,30
1351,00;27,96
1348,00;28,32
1345,00;28,20
1342,00;27,84
1339,00;27,37
1336,00;26,37
1333,00;25,69
1330,00;25,68
1327,00;26,17
1324,00;26,95
1321,00;27,80
1318,00;28,43
1315,00;28,51
1312,00;28,15
1309,00;27,38
1306,00;26,56
1303,00;25,91
1300,00;25,70
1297,00;26,00
1294,00;26,69
1291,00;27,52
1288,00;28,24
1285,00;28,52
1282,00;28,35
1279,00;27,78
1276,00;26,97
1273,00;26,23
1270,00;25,81
1267,00;25,85
1264,00;26,33
1261,00;27,09
1258,00;27,81
1255,00;28,24
1252,00;28,26
1249,00;27,82
1246,00;27,06
1243,00;26,21
1240,00;25,56
1237,00;25,35
1234,00;25,63
1231,00;26,28
1228,00;27,02
1225,00;27,59
1222,00;27,78
1219,00;27,53
1216,00;26,89
1213,00;26,07
1210,00;25,33
1207,00;24,93
1204,00;25,02
1201,00;25,56
1198,00;26,31
1195,00;27,00
1192,00;27,40
1189,00;27,37
1186,00;26,91
1183,00;26,17
1180,00;25,40
1177,00;24,85
1174,00;24,75
1171,00;25,13
1168,00;25,83
1165,00;26,60
1162,00;27,16
1159,00;27,34
1156,00;27,08
1153,00;26,46
1150,00;25,67
1147,00;25,00
1144,00;24,70
1141,00;24,88
1138,00;25,48
1135,00;26,26
1132,00;26,94
1129,00;27,31
1126,00;27,24
1123,00;26,76
1120,00;26,02
1117,00;25,28
1114,00;24,80
1111,00;24,80
1108,00;25,26
1105,00;26,01
1102,00;26,79
1099,00;27,32
1096,00;27,47
1093,00;27,17
1090,00;26,51
1087,00;25,73
1084,00;25,10
1081,00;24,85
1078,00;25,11
1075,00;25,75
1072,00;26,52
1069,00;27,15
1066,00;27,40
1063,00;27,22
1060,00;26,62
1057,00;25,79
1054,00;25,01
1051,00;24,54
1048,00;24,54
1045,00;25,00
1042,00;25,74
1039,00;26,49
1036,00;27,00
1033,00;27,11
1030,00;26,81
1027,00;26,19
1024,00;25,48
1021,00;24,96
1018,00;24,87
1015,00;25,27
1012,00;26,03
1009,00;26,90
1006,00;27,59
1003,00;27,91
1000,00;27,76
997,00;27,18
994,00;26,41
991,00;25,67
988,00;25,28
985,00;25,35
982,00;25,89
979,00;26,68
976,00;27,41
973,00;27,84
970,00;27,84
967,00;27,41
964,00;26,66
961,00;25,85
958,00;25,26
955,00;25,12
952,00;25,48
949,00;26,20
946,00;27,00
943,00;27,61
940,00;27,83
937,00;27,61
934,00;27,00
931,00;26,18
928,00;25,47
925,00;25,09
922,00;25,21
919,00;25,77
916,00;26,52
913,00;27,19
910,00;27,58
907,00;27,51
904,00;27,03
901,00;26,29
898,00;25,54
895,00;25,05
892,00;25,01
889,00;25,46
886,00;26,20
883,00;26,98
880,00;27,55
877,00;27,70
874,00;27,43
871,00;26,80
868,00;26,02
865,00;25,40
862,00;25,17
859,00;25,42
856,00;26,09
853,00;26,93
850,00;27,61
847,00;27,98
844,00;27,87
841,00;27,36
838,00;26,59
835,00;25,85
832,00;25,39
829,00;25,42
826,00;25,89
823,00;26,64
820,00;27,41
817,00;27,91
814,00;27,97
811,00;27,60
808,00;26,90
805,00;26,08
802,00;25,44
799,00;25,24
796,00;25,54
793,00;26,20
790,00;27,00
787,00;27,62
784,00;27,85
781,00;27,63
778,00;27,07
775,00;26,30
772,00;25,58
769,00;25,16
766,00;25,23
763,00;25,78
760,00;26,54
757,00;27,25
754,00;27,72
751,00;27,74
748,00;27,33
745,00;26,61
742,00;25,82
739,00;25,28
736,00;25,19
733,00;25,59
730,00;26,32
727,00;27,12
724,00;27,71
721,00;27,70
718,00;27,49
715,00;27,08
712,00;26,29
709,00;25,58
706,00;25,17
703,00;25,28
700,00;25,82
697,00;26,59
694,00;27,29
691,00;27,75
688,00;27,79
685,00;27,36
682,00;26,70
679,00;25,98
676,00;25,38
673,00;25,33
670,00;25,98
667,00;26,26
664,00;27,16
661,00;27,80
658,00;27,90
655,00;27,57
652,00;26,61
649,00;25,69
646,00;24,97
643,00;24,77
640,00;24,99
637,00;25,63
634,00;26,43
631,00;26,99
628,00;27,35
625,00;27,31
622,00;26,77
619,00;25,84
616,00;25,00
613,00;24,72
610,00;24,64
607,00;25,19
604,00;25,92
601,00;26,61
598,00;27,07
595,00;27,32
592,00;27,01
589,00;26,23
586,00;25,50
583,00;25,02
580,00;24,88
577,00;25,08
574,00;25,79
571,00;26,60
568,00;27,47
565,00;27,70
562,00;27,43
559,00;26,80
556,00;26,16
553,00;25,33
550,00;24,98
547,00;25,28
544,00;25,79
541,00;26,56
538,00;27,43
535,00;28,16
532,00;27,93
529,00;27,50
526,00;26,84
523,00;26,56
520,00;25,59
517,00;25,63
514,00;25,47
511,00;27,20
508,00;28,00
505,00;28,65
502,00;29,41
500,00;30,97