File: FTIR/LNB_28-10-2024/MoS2(1)-15H.csv
Criado como novo conjunto de dados;Amostra 009 por Analyst data segunda-feira, outubro 28 2024
cm-1;%T
4000,00;38,72
3997,00;38,73
3994,00;38,72
3991,00;38,72
3988,00;38,73
3985,00;38,74
3982,00;38,74
3979,00;38,74
3976,00;38,74
3973,00;38,73
3970,00;38,73
3967,00;38,74
3964,00;38,76
3961,00;38,75
3958,00;38,74
3955,00;38,75
3952,00;38,76
3949,00;38,74
3946,00;38,72
3943,00;38,71
3940,00;38,72
3937,00;38,76
3934,00;38,79
3931,00;38,74
3928,00;38,73
3925,00;38,75
3922,00;38,74
3919,00;38,75
3916,00;38,73
3913,00;38,76
3910,00;38,81
3907,00;38,83
3904,00;38,77
3901,00;38,67
3898,00;38,63
3895,00;38,75
3892,00;38,76
3889,00;38,81
3886,00;38,76
3883,00;38,84
3880,00;38,67
3877,00;38,80
3874,00;38,80
3871,00;38,79
3868,00;38,80
3865,00;38,75
3862,00;38,78
3859,00;38,81
3856,00;38,79
3853,00;38,93
3850,00;38,90
3847,00;38,81
3844,00;38,90
3841,00;38,90
3838,00;38,81
3835,00;38,85
3832,00;38,81
3829,00;38,92
3826,00;38,91
3823,00;38,93
3820,00;38,90
3817,00;38,85
3814,00;38,99
3811,00;38,96
3808,00;39,01
3805,00;39,09
3802,00;38,94
3799,00;39,04
3796,00;38,89
3793,00;39,01
3790,00;39,07
3787,00;39,12
3784,00;39,09
3781,00;39,08
3778,00;39,07
3775,00;39,09
3772,00;39,15
3769,00;39,13
3766,00;39,08
3763,00;39,13
3760,00;39,14
3757,00;39,12
3754,00;39,11
3751,00;39,20
3748,00;39,12
3745,00;38,93
3742,00;39,22
3739,00;39,09
3736,00;39,15
3733,00;39,02
3730,00;39,21
3727,00;39,29
3724,00;39,32
3721,00;39,26
3718,00;39,27
3715,00;39,28
3712,00;39,28
3709,00;39,24
3706,00;39,30
3703,00;39,36
3700,00;39,37
3697,00;39,38
3694,00;39,40
3691,00;39,37
3688,00;39,28
3685,00;39,32
3682,00;39,32
3679,00;39,35
3676,00;39,26
3673,00;39,24
3670,00;39,16
3667,00;39,23
3664,00;39,26
3661,00;39,32
3658,00;39,30
3655,00;39,27
3652,00;39,21
3649,00;39,14
3646,00;38,93
3643,00;39,03
3640,00;39,11
3637,00;39,12
3634,00;39,08
3631,00;39,04
3628,00;38,95
3625,00;38,93
3622,00;38,93
3619,00;38,86
3616,00;38,77
3613,00;38,63
3610,00;38,61
3607,00;38,62
3604,00;38,62
3601,00;38,65
3598,00;38,59
3595,00;38,50
3592,00;38,43
3589,00;38,41
3586,00;38,25
3583,00;38,23
3580,00;38,26
3577,00;38,24
3574,00;38,19
3571,00;38,17
3568,00;38,11
3565,00;37,87
3562,00;37,89
3559,00;37,92
3556,00;37,93
3553,00;37,90
3550,00;37,83
3547,00;37,81
3544,00;37,70
3541,00;37,68
3538,00;37,70
3535,00;37,65
3532,00;37,63
3529,00;37,60
3526,00;37,52
3523,00;37,45
3520,00;37,43
3517,00;37,44
3514,00;37,42
3511,00;37,39
3508,00;37,33
3505,00;37,33
3502,00;37,26
3499,00;37,22
3496,00;37,22
3493,00;37,19
3490,00;37,18
3487,00;37,14
3484,00;37,11
3481,00;37,08
3478,00;37,03
3475,00;37,02
3472,00;37,00
3469,00;36,99
3466,00;36,95
3463,00;36,93
3460,00;36,89
3457,00;36,86
3454,00;36,84
3451,00;36,83
3448,00;36,81
3445,00;36,75
3442,00;36,74
3439,00;36,73
3436,00;36,71
3433,00;36,69
3430,00;36,67
3427,00;36,64
3424,00;36,63
3421,00;36,61
3418,00;36,57
3415,00;36,57
3412,00;36,56
3409,00;36,54
3406,00;36,52
3403,00;36,52
3400,00;36,50
3397,00;36,47
3394,00;36,47
3391,00;36,45
3388,00;36,43
3385,00;36,42
3382,00;36,41
3379,00;36,40
3376,00;36,39
3373,00;36,38
3370,00;36,39
3367,00;36,37
3364,00;36,34
3361,00;36,33
3358,00;36,32
3355,00;36,31
3352,00;36,32
3349,00;36,31
3346,00;36,30
3343,00;36,31
3340,00;36,30
3337,00;36,29
3334,00;36,27
3331,00;36,27
3328,00;36,28
3325,00;36,27
3322,00;36,25
3319,00;36,25
3316,00;36,25
3313,00;36,25
3310,00;36,25
3307,00;36,25
3304,00;36,23
3301,00;36,22
3298,00;36,23
3295,00;36,23
3292,00;36,22
3289,00;36,18
3286,00;36,18
3283,00;36,17
3280,00;36,17
3277,00;36,18
3274,00;36,17
3271,00;36,17
3268,00;36,15
3265,00;36,14
3262,00;36,14
3259,00;36,13
3256,00;36,14
3253,00;36,11
3250,00;36,12
3247,00;36,13
3244,00;36,11
3241,00;36,10
3238,00;36,10
3235,00;36,11
3232,00;36,10
3229,00;36,08
3226,00;36,08
3223,00;36,09
3220,00;36,09
3217,00;36,08
3214,00;36,08
3211,00;36,08
3208,00;36,08
3205,00;36,09
3202,00;36,09
3199,00;36,09
3196,00;36,09
3193,00;36,09
3190,00;36,10
3187,00;36,11
3184,00;36,11
3181,00;36,12
3178,00;36,12
3175,00;36,13
3172,00;36,14
3169,00;36,15
3166,00;36,15
3163,00;36,16
3160,00;36,17
3157,00;36,18
3154,00;36,21
3151,00;36,21
3148,00;36,21
3145,00;36,21
3142,00;36,23
3139,00;36,25
3136,00;36,24
3133,00;36,25
3130,00;36,25
3127,00;36,26
3124,00;36,27
3121,00;36,29
3118,00;36,30
3115,00;36,29
3112,00;36,30
3109,00;36,31
3106,00;36,31
3103,00;36,32
3100,00;36,33
3097,00;36,32
3094,00;36,32
3091,00;36,34
3088,00;36,35
3085,00;36,37
3082,00;36,38
3079,00;36,38
3076,00;36,36
3073,00;36,36
3070,00;36,38
3067,00;36,40
3064,00;36,38
3061,00;36,38
3058,00;36,40
3055,00;36,40
3052,00;36,42
3049,00;36,43
3046,00;36,44
3043,00;36,46
3040,00;36,45
3037,00;36,46
3034,00;36,48
3031,00;36,47
3028,00;36,47
3025,00;36,50
3022,00;36,50
3019,00;36,53
3016,00;36,55
3013,00;36,55
3010,00;36,55
3007,00;36,55
3004,00;36,56
3001,00;36,57
2998,00;36,59
2995,00;36,59
2992,00;36,60
2989,00;36,59
2986,00;36,58
2983,00;36,59
2980,00;36,60
2977,00;36,58
2974,00;36,58
2971,00;36,57
2968,00;36,57
2965,00;36,56
2962,00;36,54
2959,00;36,52
2956,00;36,50
2953,00;36,50
2950,00;36,49
2947,00;36,50
2944,00;36,52
2941,00;36,51
2938,00;36,52
2935,00;36,53
2932,00;36,54
2929,00;36,52
2926,00;36,46
2923,00;36,39
2920,00;36,31
2917,00;36,26
2914,00;36,22
2911,00;36,19
2908,00;36,19
2905,00;36,23
2902,00;36,30
2899,00;36,37
2896,00;36,45
2893,00;36,50
2890,00;36,54
2887,00;36,58
2884,00;36,61
2881,00;36,64
2878,00;36,66
2875,00;36,71
2872,00;36,72
2869,00;36,72
2866,00;36,73
2863,00;36,75
2860,00;36,76
2857,00;36,76
2854,00;36,75
2851,00;36,73
2848,00;36,73
2845,00;36,73
2842,00;36,76
2839,00;36,81
2836,00;36,85
2833,00;36,89
2830,00;36,93
2827,00;36,97
2824,00;37,00
2821,00;37,03
2818,00;37,05
2815,00;37,07
2812,00;37,10
2809,00;37,12
2806,00;37,13
2803,00;37,14
2800,00;37,17
2797,00;37,19
2794,00;37,20
2791,00;37,22
2788,00;37,24
2785,00;37,24
2782,00;37,26
2779,00;37,27
2776,00;37,30
2773,00;37,31
2770,00;37,32
2767,00;37,33
2764,00;37,35
2761,00;37,36
2758,00;37,37
2755,00;37,39
2752,00;37,40
2749,00;37,42
2746,00;37,43
2743,00;37,44
2740,00;37,45
2737,00;37,46
2734,00;37,48
2731,00;37,49
2728,00;37,51
2725,00;37,52
2722,00;37,53
2719,00;37,53
2716,00;37,55
2713,00;37,56
2710,00;37,57
2707,00;37,58
2704,00;37,59
2701,00;37,61
2698,00;37,62
2695,00;37,63
2692,00;37,64
2689,00;37,65
2686,00;37,66
2683,00;37,67
2680,00;37,69
2677,00;37,70
2674,00;37,71
2671,00;37,72
2668,00;37,72
2665,00;37,73
2662,00;37,75
2659,00;37,77
2656,00;37,79
2653,00;37,82
2650,00;37,85
2647,00;37,88
2644,00;37,91
2641,00;37,95
2638,00;37,98
2635,00;38,00
2632,00;38,02
2629,00;38,04
2626,00;38,07
2623,00;38,09
2620,00;38,11
2617,00;38,13
2614,00;38,15
2611,00;38,16
2608,00;38,18
2605,00;38,20
2602,00;38,21
2599,00;38,23
2596,00;38,24
2593,00;38,26
2590,00;38,27
2587,00;38,28
2584,00;38,30
2581,00;38,31
2578,00;38,32
2575,00;38,33
2572,00;38,34
2569,00;38,35
2566,00;38,36
2563,00;38,38
2560,00;38,39
2557,00;38,39
2554,00;38,40
2551,00;38,41
2548,00;38,42
2545,00;38,43
2542,00;38,45
2539,00;38,45
2536,00;38,46
2533,00;38,46
2530,00;38,46
2527,00;38,47
2524,00;38,48
2521,00;38,48
2518,00;38,48
2515,00;38,49
2512,00;38,50
2509,00;38,51
2506,00;38,51
2503,00;38,51
2500,00;38,52
2497,00;38,51
2494,00;38,53
2491,00;38,54
2488,00;38,55
2485,00;38,55
2482,00;38,55
2479,00;38,55
2476,00;38,56
2473,00;38,56
2470,00;38,56
2467,00;38,57
2464,00;38,58
2461,00;38,58
2458,00;38,58
2455,00;38,58
2452,00;38,58
2449,00;38,60
2446,00;38,60
2443,00;38,61
2440,00;38,62
2437,00;38,63
2434,00;38,63
2431,00;38,63
2428,00;38,63
2425,00;38,63
2422,00;38,65
2419,00;38,65
2416,00;38,65
2413,00;38,65
2410,00;38,65
2407,00;38,67
2404,00;38,67
2401,00;38,67
2398,00;38,67
2395,00;38,67
2392,00;38,66
2389,00;38,67
2386,00;38,68
2383,00;38,72
2380,00;38,76
2377,00;38,78
2374,00;38,77
2371,00;38,73
2368,00;38,80
2365,00;38,83
2362,00;38,88
2359,00;38,86
2356,00;38,85
2353,00;38,87
2350,00;38,88
2347,00;38,95
2344,00;39,48
2341,00;38,97
2338,00;38,79
2335,00;38,39
2332,00;38,45
2329,00;38,40
2326,00;38,40
2323,00;38,45
2320,00;38,48
2317,00;38,52
2314,00;38,59
2311,00;38,61
2308,00;38,64
2305,00;38,68
2302,00;38,73
2299,00;38,65
2296,00;38,67
2293,00;38,70
2290,00;38,74
2287,00;38,77
2284,00;38,78
2281,00;38,84
2278,00;38,91
2275,00;38,93
2272,00;38,96
2269,00;38,96
2266,00;38,98
2263,00;38,98
2260,00;38,97
2257,00;38,97
2254,00;38,99
2251,00;38,99
2248,00;38,98
2245,00;38,99
2242,00;39,00
2239,00;39,01
2236,00;39,02
2233,00;39,02
2230,00;39,03
2227,00;39,03
2224,00;39,06
2221,00;39,05
2218,00;39,06
2215,00;39,07
2212,00;39,07
2209,00;39,09
2206,00;39,10
2203,00;39,09
2200,00;39,09
2197,00;39,09
2194,00;39,11
2191,00;39,11
2188,00;39,11
2185,00;39,12
2182,00;39,16
2179,00;39,14
2176,00;39,14
2173,00;39,16
2170,00;39,16
2167,00;39,16
2164,00;39,14
2161,00;39,16
2158,00;39,30
2155,00;39,30
2152,00;39,25
2149,00;39,27
2146,00;39,27
2143,00;39,26
2140,00;39,25
2137,00;39,27
2134,00;39,29
2131,00;39,27
2128,00;39,25
2125,00;39,23
2122,00;39,21
2119,00;39,21
2116,00;39,20
2113,00;39,21
2110,00;39,22
2107,00;39,23
2104,00;39,23
2101,00;39,24
2098,00;39,27
2095,00;39,31
2092,00;39,31
2089,00;39,29
2086,00;39,29
2083,00;39,31
2080,00;39,33
2077,00;39,35
2074,00;39,38
2071,00;39,37
2068,00;39,39
2065,00;39,39
2062,00;39,41
2059,00;39,43
2056,00;39,44
2053,00;39,48
2050,00;39,47
2047,00;39,50
2044,00;39,53
2041,00;39,56
2038,00;39,57
2035,00;39,59
2032,00;39,60
2029,00;39,62
2026,00;39,63
2023,00;39,64
2020,00;39,62
2017,00;39,64
2014,00;39,64
2011,00;39,64
2008,00;39,68
2005,00;39,68
2002,00;39,70
1999,00;39,68
1996,00;39,67
1993,00;39,68
1990,00;39,64
1987,00;39,65
1984,00;39,69
1981,00;39,72
1978,00;39,78
1975,00;39,81
1972,00;39,83
1969,00;39,82
1966,00;39,83
1963,00;39,83
1960,00;39,86
1957,00;39,83
1954,00;39,82
1951,00;39,82
1948,00;39,84
1945,00;39,87
1942,00;39,85
1939,00;39,84
1936,00;39,84
1933,00;39,84
1930,00;39,86
1927,00;39,88
1924,00;39,88
1921,00;39,87
1918,00;39,89
1915,00;39,89
1912,00;39,91
1909,00;39,92
1906,00;39,92
1903,00;39,93
1900,00;39,93
1897,00;39,95
1894,00;39,95
1891,00;39,97
1888,00;39,96
1885,00;39,98
1882,00;40,00
1879,00;40,00
1876,00;40,01
1873,00;40,03
1870,00;40,04
1867,00;40,01
1864,00;40,02
1861,00;40,06
1858,00;40,08
1855,00;40,09
1852,00;40,10
1849,00;40,11
1846,00;40,09
1843,00;40,13
1840,00;40,10
1837,00;40,13
1834,00;40,14
1831,00;40,14
1828,00;40,12
1825,00;40,12
1822,00;40,15
1819,00;40,18
1816,00;40,16
1813,00;40,17
1810,00;40,14
1807,00;40,14
1804,00;40,17
1801,00;40,17
1798,00;40,16
1795,00;40,16
1792,00;40,17
1789,00;40,16
1786,00;40,19
1783,00;40,20
1780,00;40,17
1777,00;40,18
1774,00;40,15
1771,00;40,15
1768,00;40,11
1765,00;40,14
1762,00;40,12
1759,00;40,10
1756,00;40,09
1753,00;40,08
1750,00;40,06
1747,00;39,93
1744,00;39,92
1741,00;39,89
1738,00;39,90
1735,00;39,85
1732,00;39,83
1729,00;39,67
1726,00;39,68
1723,00;39,62
1720,00;39,54
1717,00;39,50
1714,00;39,35
1711,00;39,31
1708,00;39,27
1705,00;39,17
1702,00;39,09
1699,00;39,14
1696,00;38,90
1693,00;38,95
1690,00;38,82
1687,00;38,70
1684,00;38,66
1681,00;38,49
1678,00;38,43
1675,00;38,42
1672,00;38,35
1669,00;38,22
1666,00;38,21
1663,00;38,19
1660,00;38,12
1657,00;38,09
1654,00;38,06
1651,00;38,03
1648,00;37,89
1645,00;37,80
1642,00;37,83
1639,00;37,82
1636,00;37,74
1633,00;37,71
1630,00;37,71
1627,00;37,69
1624,00;37,68
1621,00;37,67
1618,00;37,71
1615,00;37,77
1612,00;37,80
1609,00;37,85
1606,00;37,90
1603,00;37,99
1600,00;38,06
1597,00;38,14
1594,00;38,19
1591,00;38,27
1588,00;38,34
1585,00;38,41
1582,00;38,47
1579,00;38,53
1576,00;38,58
1573,00;38,63
1570,00;38,68
1567,00;38,72
1564,00;38,77
1561,00;38,81
1558,00;38,85
1555,00;38,89
1552,00;39,00
1549,00;39,01
1546,00;39,09
1543,00;39,10
1540,00;39,09
1537,00;39,22
1534,00;39,24
1531,00;39,29
1528,00;39,34
1525,00;39,38
1522,00;39,40
1519,00;39,45
1516,00;39,43
1513,00;39,52
1510,00;39,58
1507,00;39,49
1504,00;39,61
1501,00;39,63
1498,00;39,64
1495,00;39,65
1492,00;39,66
1489,00;39,60
1486,00;39,59
1483,00;39,64
1480,00;39,63
1477,00;39,61
1474,00;39,54
1471,00;39,40
1468,00;39,33
1465,00;39,23
1462,00;39,13
1459,00;39,05
1456,00;38,93
1453,00;38,90
1450,00;38,89
1447,00;38,85
1444,00;38,85
1441,00;38,87
1438,00;38,86
1435,00;38,85
1432,00;38,84
1429,00;38,84
1426,00;38,87
1423,00;38,86
1420,00;38,91
1417,00;38,91
1414,00;38,94
1411,00;39,00
1408,00;39,06
1405,00;39,09
1402,00;39,14
1399,00;39,18
1396,00;39,19
1393,00;39,22
1390,00;39,24
1387,00;39,25
1384,00;39,24
1381,00;39,22
1378,00;39,19
1375,00;39,18
1372,00;39,19
1369,00;39,25
1366,00;39,28
1363,00;39,27
1360,00;39,25
1357,00;39,28
1354,00;39,30
1351,00;39,35
1348,00;39,40
1345,00;39,47
1342,00;39,54
1339,00;39,54
1336,00;39,59
1333,00;39,67
1330,00;39,71
1327,00;39,74
1324,00;39,75
1321,00;39,76
1318,00;39,74
1315,00;39,76
1312,00;39,77
1309,00;39,79
1306,00;39,81
1303,00;39,83
1300,00;39,85
1297,00;39,85
1294,00;39,86
1291,00;39,85
1288,00;39,84
1285,00;39,82
1282,00;39,78
1279,00;39,73
1276,00;39,67
1273,00;39,57
1270,00;39,44
1267,00;39,28
1264,00;39,11
1261,00;38,96
1258,00;38,85
1255,00;38,75
1252,00;38,61
1249,00;38,44
1246,00;38,24
1243,00;38,03
1240,00;37,83
1237,00;37,61
1234,00;37,40
1231,00;37,20
1228,00;37,00
1225,00;36,82
1222,00;36,65
1219,00;36,50
1216,00;36,37
1213,00;36,24
1210,00;36,11
1207,00;36,00
1204,00;35,89
1201,00;35,80
1198,00;35,72
1195,00;35,65
1192,00;35,58
1189,00;35,53
1186,00;35,48
1183,00;35,43
1180,00;35,37
1177,00;35,31
1174,00;35,24
1171,00;35,16
1168,00;35,07
1165,00;34,97
1162,00;34,86
1159,00;34,75
1156,00;34,63
1153,00;34,51
1150,00;34,36
1147,00;34,23
1144,00;34,10
1141,00;33,98
1138,00;33,87
1135,00;33,75
1132,00;33,63
1129,00;33,53
1126,00;33,47
1123,00;33,42
1120,00;33,38
1117,00;33,37
1114,00;33,38
1111,00;33,42
1108,00;33,48
1105,00;33,55
1102,00;33,62
1099,00;33,69
1096,00;33,77
1093,00;33,83
1090,00;33,89
1087,00;33,94
1084,00;33,97
1081,00;34,00
1078,00;34,03
1075,00;34,06
1072,00;34,07
1069,00;34,09
1066,00;34,10
1063,00;34,12
1060,00;34,15
1057,00;34,19
1054,00;34,25
1051,00;34,26
1048,00;34,26
1045,00;34,31
1042,00;34,43
1039,00;34,61
1036,00;34,82
1033,00;35,04
1030,00;35,27
1027,00;35,49
1024,00;35,68
1021,00;35,84
1018,00;35,96
1015,00;36,07
1012,00;36,13
1009,00;36,17
1006,00;36,21
1003,00;36,23
1000,00;36,26
997,00;36,27
994,00;36,32
991,00;36,35
988,00;36,37
985,00;36,37
982,00;36,34
979,00;36,32
976,00;36,28
973,00;36,26
970,00;36,23
967,00;36,18
964,00;36,14
961,00;36,07
958,00;36,01
955,00;35,94
952,00;35,86
949,00;35,78
946,00;35,72
943,00;35,67
940,00;35,68
937,00;35,72
934,00;35,79
931,00;35,89
928,00;36,00
925,00;36,10
922,00;36,18
919,00;36,24
916,00;36,27
913,00;36,26
910,00;36,27
907,00;36,27
904,00;36,27
901,00;36,29
898,00;36,32
895,00;36,34
892,00;36,37
889,00;36,40
886,00;36,41
883,00;36,40
880,00;36,41
877,00;36,43
874,00;36,47
871,00;36,52
868,00;36,58
865,00;36,65
862,00;36,70
859,00;36,77
856,00;36,82
853,00;36,89
850,00;36,93
847,00;36,97
844,00;36,99
841,00;36,99
838,00;37,01
835,00;37,02
832,00;37,00
829,00;36,95
826,00;36,88
823,00;36,77
820,00;36,68
817,00;36,57
814,00;36,43
811,00;36,26
808,00;36,07
805,00;35,87
802,00;35,66
799,00;35,43
796,00;35,21
793,00;34,94
790,00;34,63
787,00;34,29
784,00;33,92
781,00;33,54
778,00;33,18
775,00;32,83
772,00;32,50
769,00;32,15
766,00;31,82
763,00;31,49
760,00;31,17
757,00;30,87
754,00;30,58
751,00;30,31
748,00;30,05
745,00;29,82
742,00;29,58
739,00;29,32
736,00;29,12
733,00;28,90
730,00;28,68
727,00;28,45
724,00;28,23
721,00;28,00
718,00;27,78
715,00;27,60
712,00;27,42
709,00;27,24
706,00;27,05
703,00;26,85
700,00;26,65
697,00;26,49
694,00;26,33
691,00;26,20
688,00;26,05
685,00;25,89
682,00;25,68
679,00;25,44
676,00;25,21
673,00;24,95
670,00;24,80
667,00;24,05
664,00;24,05
661,00;23,98
658,00;23,77
655,00;23,54
652,00;23,28
649,00;22,98
646,00;22,65
643,00;22,41
640,00;22,20
637,00;21,99
634,00;21,78
631,00;21,58
628,00;21,36
625,00;21,19
622,00;21,03
619,00;20,88
616,00;20,78
613,00;20,68
610,00;20,56
607,00;20,43
604,00;20,36
601,00;20,32
598,00;20,12
595,00;20,01
592,00;19,95
589,00;19,88
586,00;19,70
583,00;19,64
580,00;19,63
577,00;19,45
574,00;19,26
571,00;19,14
568,00;19,16
565,00;18,95
562,00;18,92
559,00;18,77
556,00;18,80
553,00;18,79
550,00;18,70
547,00;18,75
544,00;18,80
541,00;18,74
538,00;18,41
535,00;18,17
532,00;18,19
529,00;18,47
526,00;17,97
523,00;17,67
520,00;17,99
517,00;17,99
514,00;18,19
511,00;17,27
508,00;17,45
505,00;16,55
502,00;13,83
500,00;14,71