File: FTIR/LNB_28-10-2024/MoS2(1)-4H.csv
Criado como novo conjunto de dados;Amostra 006 por Analyst data segunda-feira, outubro 28 2024
cm-1;%T
4000,00;27,79
3997,00;27,79
3994,00;27,78
3991,00;27,78
3988,00;27,77
3985,00;27,78
3982,00;27,78
3979,00;27,78
3976,00;27,77
3973,00;27,76
3970,00;27,76
3967,00;27,76
3964,00;27,77
3961,00;27,76
3958,00;27,76
3955,00;27,76
3952,00;27,77
3949,00;27,75
3946,00;27,73
3943,00;27,72
3940,00;27,72
3937,00;27,74
3934,00;27,76
3931,00;27,72
3928,00;27,71
3925,00;27,72
3922,00;27,71
3919,00;27,70
3916,00;27,68
3913,00;27,70
3910,00;27,74
3907,00;27,76
3904,00;27,69
3901,00;27,61
3898,00;27,58
3895,00;27,67
3892,00;27,67
3889,00;27,70
3886,00;27,65
3883,00;27,70
3880,00;27,59
3877,00;27,67
3874,00;27,68
3871,00;27,66
3868,00;27,64
3865,00;27,61
3862,00;27,64
3859,00;27,66
3856,00;27,64
3853,00;27,67
3850,00;27,66
3847,00;27,64
3844,00;27,71
3841,00;27,70
3838,00;27,62
3835,00;27,62
3832,00;27,60
3829,00;27,69
3826,00;27,69
3823,00;27,70
3820,00;27,65
3817,00;27,60
3814,00;27,69
3811,00;27,70
3808,00;27,73
3805,00;27,77
3802,00;27,66
3799,00;27,71
3796,00;27,62
3793,00;27,71
3790,00;27,76
3787,00;27,79
3784,00;27,77
3781,00;27,75
3778,00;27,73
3775,00;27,74
3772,00;27,78
3769,00;27,75
3766,00;27,71
3763,00;27,73
3760,00;27,73
3757,00;27,72
3754,00;27,70
3751,00;27,73
3748,00;27,65
3745,00;27,51
3742,00;27,72
3739,00;27,68
3736,00;27,72
3733,00;27,58
3730,00;27,68
3727,00;27,74
3724,00;27,76
3721,00;27,71
3718,00;27,73
3715,00;27,77
3712,00;27,79
3709,00;27,70
3706,00;27,73
3703,00;27,77
3700,00;27,77
3697,00;27,79
3694,00;27,81
3691,00;27,77
3688,00;27,69
3685,00;27,73
3682,00;27,75
3679,00;27,78
3676,00;27,68
3673,00;27,63
3670,00;27,57
3667,00;27,64
3664,00;27,68
3661,00;27,74
3658,00;27,72
3655,00;27,68
3652,00;27,63
3649,00;27,57
3646,00;27,43
3643,00;27,52
3640,00;27,59
3637,00;27,61
3634,00;27,58
3631,00;27,52
3628,00;27,41
3625,00;27,41
3622,00;27,43
3619,00;27,38
3616,00;27,33
3613,00;27,27
3610,00;27,26
3607,00;27,25
3604,00;27,26
3601,00;27,28
3598,00;27,25
3595,00;27,18
3592,00;27,15
3589,00;27,12
3586,00;27,04
3583,00;27,03
3580,00;27,06
3577,00;27,05
3574,00;27,03
3571,00;27,01
3568,00;26,97
3565,00;26,82
3562,00;26,83
3559,00;26,86
3556,00;26,86
3553,00;26,85
3550,00;26,81
3547,00;26,79
3544,00;26,73
3541,00;26,71
3538,00;26,73
3535,00;26,69
3532,00;26,68
3529,00;26,66
3526,00;26,62
3523,00;26,57
3520,00;26,56
3517,00;26,56
3514,00;26,56
3511,00;26,53
3508,00;26,49
3505,00;26,49
3502,00;26,45
3499,00;26,43
3496,00;26,42
3493,00;26,40
3490,00;26,39
3487,00;26,36
3484,00;26,33
3481,00;26,32
3478,00;26,29
3475,00;26,28
3472,00;26,27
3469,00;26,26
3466,00;26,23
3463,00;26,20
3460,00;26,18
3457,00;26,15
3454,00;26,14
3451,00;26,13
3448,00;26,12
3445,00;26,08
3442,00;26,06
3439,00;26,06
3436,00;26,06
3433,00;26,03
3430,00;26,01
3427,00;25,99
3424,00;25,97
3421,00;25,96
3418,00;25,93
3415,00;25,93
3412,00;25,92
3409,00;25,90
3406,00;25,88
3403,00;25,88
3400,00;25,86
3397,00;25,84
3394,00;25,84
3391,00;25,82
3388,00;25,79
3385,00;25,78
3382,00;25,77
3379,00;25,75
3376,00;25,74
3373,00;25,73
3370,00;25,74
3367,00;25,72
3364,00;25,69
3361,00;25,68
3358,00;25,66
3355,00;25,65
3352,00;25,65
3349,00;25,63
3346,00;25,61
3343,00;25,61
3340,00;25,60
3337,00;25,58
3334,00;25,55
3331,00;25,54
3328,00;25,54
3325,00;25,52
3322,00;25,50
3319,00;25,48
3316,00;25,47
3313,00;25,45
3310,00;25,45
3307,00;25,44
3304,00;25,41
3301,00;25,38
3298,00;25,37
3295,00;25,36
3292,00;25,34
3289,00;25,30
3286,00;25,28
3283,00;25,26
3280,00;25,24
3277,00;25,23
3274,00;25,22
3271,00;25,20
3268,00;25,17
3265,00;25,15
3262,00;25,14
3259,00;25,13
3256,00;25,12
3253,00;25,09
3250,00;25,08
3247,00;25,08
3244,00;25,06
3241,00;25,04
3238,00;25,03
3235,00;25,03
3232,00;25,02
3229,00;24,99
3226,00;24,98
3223,00;24,98
3220,00;24,97
3217,00;24,97
3214,00;24,96
3211,00;24,95
3208,00;24,94
3205,00;24,94
3202,00;24,94
3199,00;24,94
3196,00;24,93
3193,00;24,93
3190,00;24,94
3187,00;24,93
3184,00;24,93
3181,00;24,93
3178,00;24,93
3175,00;24,93
3172,00;24,93
3169,00;24,94
3166,00;24,94
3163,00;24,94
3160,00;24,95
3157,00;24,96
3154,00;24,97
3151,00;24,97
3148,00;24,96
3145,00;24,96
3142,00;24,97
3139,00;24,98
3136,00;24,97
3133,00;24,97
3130,00;24,97
3127,00;24,96
3124,00;24,97
3121,00;24,99
3118,00;24,99
3115,00;24,98
3112,00;24,96
3109,00;24,97
3106,00;24,96
3103,00;24,96
3100,00;24,96
3097,00;24,94
3094,00;24,94
3091,00;24,95
3088,00;24,95
3085,00;24,95
3082,00;24,95
3079,00;24,94
3076,00;24,91
3073,00;24,91
3070,00;24,91
3067,00;24,92
3064,00;24,90
3061,00;24,89
3058,00;24,90
3055,00;24,90
3052,00;24,90
3049,00;24,90
3046,00;24,91
3043,00;24,92
3040,00;24,91
3037,00;24,91
3034,00;24,92
3031,00;24,91
3028,00;24,91
3025,00;24,92
3022,00;24,93
3019,00;24,94
3016,00;24,96
3013,00;24,96
3010,00;24,95
3007,00;24,95
3004,00;24,96
3001,00;24,97
2998,00;24,98
2995,00;24,98
2992,00;24,99
2989,00;24,98
2986,00;24,98
2983,00;25,00
2980,00;25,01
2977,00;25,00
2974,00;25,00
2971,00;24,98
2968,00;24,97
2965,00;24,95
2962,00;24,93
2959,00;24,90
2956,00;24,88
2953,00;24,87
2950,00;24,86
2947,00;24,87
2944,00;24,87
2941,00;24,87
2938,00;24,87
2935,00;24,87
2932,00;24,87
2929,00;24,85
2926,00;24,79
2923,00;24,72
2920,00;24,64
2917,00;24,58
2914,00;24,57
2911,00;24,56
2908,00;24,56
2905,00;24,60
2902,00;24,64
2899,00;24,69
2896,00;24,74
2893,00;24,76
2890,00;24,78
2887,00;24,81
2884,00;24,83
2881,00;24,84
2878,00;24,86
2875,00;24,88
2872,00;24,89
2869,00;24,88
2866,00;24,88
2863,00;24,88
2860,00;24,88
2857,00;24,87
2854,00;24,84
2851,00;24,83
2848,00;24,82
2845,00;24,82
2842,00;24,83
2839,00;24,87
2836,00;24,89
2833,00;24,92
2830,00;24,95
2827,00;24,97
2824,00;24,99
2821,00;25,01
2818,00;25,02
2815,00;25,04
2812,00;25,05
2809,00;25,07
2806,00;25,07
2803,00;25,08
2800,00;25,10
2797,00;25,11
2794,00;25,12
2791,00;25,13
2788,00;25,13
2785,00;25,13
2782,00;25,14
2779,00;25,15
2776,00;25,16
2773,00;25,17
2770,00;25,17
2767,00;25,18
2764,00;25,19
2761,00;25,19
2758,00;25,20
2755,00;25,20
2752,00;25,21
2749,00;25,23
2746,00;25,23
2743,00;25,23
2740,00;25,23
2737,00;25,24
2734,00;25,24
2731,00;25,25
2728,00;25,26
2725,00;25,27
2722,00;25,27
2719,00;25,27
2716,00;25,27
2713,00;25,28
2710,00;25,29
2707,00;25,29
2704,00;25,29
2701,00;25,30
2698,00;25,30
2695,00;25,31
2692,00;25,31
2689,00;25,32
2686,00;25,32
2683,00;25,33
2680,00;25,34
2677,00;25,34
2674,00;25,34
2671,00;25,34
2668,00;25,34
2665,00;25,34
2662,00;25,34
2659,00;25,35
2656,00;25,36
2653,00;25,37
2650,00;25,38
2647,00;25,38
2644,00;25,39
2641,00;25,40
2638,00;25,41
2635,00;25,42
2632,00;25,43
2629,00;25,43
2626,00;25,44
2623,00;25,44
2620,00;25,45
2617,00;25,45
2614,00;25,46
2611,00;25,46
2608,00;25,46
2605,00;25,47
2602,00;25,47
2599,00;25,48
2596,00;25,48
2593,00;25,48
2590,00;25,49
2587,00;25,49
2584,00;25,49
2581,00;25,49
2578,00;25,50
2575,00;25,49
2572,00;25,49
2569,00;25,50
2566,00;25,50
2563,00;25,50
2560,00;25,50
2557,00;25,50
2554,00;25,50
2551,00;25,50
2548,00;25,50
2545,00;25,50
2542,00;25,50
2539,00;25,50
2536,00;25,50
2533,00;25,50
2530,00;25,49
2527,00;25,50
2524,00;25,50
2521,00;25,50
2518,00;25,50
2515,00;25,50
2512,00;25,50
2509,00;25,49
2506,00;25,49
2503,00;25,48
2500,00;25,48
2497,00;25,48
2494,00;25,48
2491,00;25,48
2488,00;25,48
2485,00;25,48
2482,00;25,47
2479,00;25,47
2476,00;25,47
2473,00;25,47
2470,00;25,47
2467,00;25,47
2464,00;25,47
2461,00;25,47
2458,00;25,46
2455,00;25,46
2452,00;25,46
2449,00;25,45
2446,00;25,46
2443,00;25,46
2440,00;25,46
2437,00;25,46
2434,00;25,46
2431,00;25,46
2428,00;25,46
2425,00;25,46
2422,00;25,46
2419,00;25,46
2416,00;25,45
2413,00;25,45
2410,00;25,46
2407,00;25,46
2404,00;25,46
2401,00;25,46
2398,00;25,45
2395,00;25,45
2392,00;25,44
2389,00;25,44
2386,00;25,43
2383,00;25,46
2380,00;25,48
2377,00;25,46
2374,00;25,42
2371,00;25,41
2368,00;25,42
2365,00;25,42
2362,00;25,38
2359,00;25,34
2356,00;25,31
2353,00;25,41
2350,00;25,35
2347,00;25,49
2344,00;25,49
2341,00;25,37
2338,00;25,31
2335,00;25,27
2332,00;25,26
2329,00;25,23
2326,00;25,21
2323,00;25,24
2320,00;25,24
2317,00;25,26
2314,00;25,30
2311,00;25,32
2308,00;25,34
2305,00;25,35
2302,00;25,36
2299,00;25,38
2296,00;25,38
2293,00;25,38
2290,00;25,39
2287,00;25,39
2284,00;25,40
2281,00;25,42
2278,00;25,43
2275,00;25,43
2272,00;25,44
2269,00;25,43
2266,00;25,43
2263,00;25,44
2260,00;25,43
2257,00;25,43
2254,00;25,44
2251,00;25,44
2248,00;25,44
2245,00;25,44
2242,00;25,44
2239,00;25,44
2236,00;25,45
2233,00;25,45
2230,00;25,45
2227,00;25,44
2224,00;25,44
2221,00;25,44
2218,00;25,45
2215,00;25,45
2212,00;25,46
2209,00;25,44
2206,00;25,43
2203,00;25,44
2200,00;25,44
2197,00;25,45
2194,00;25,44
2191,00;25,44
2188,00;25,44
2185,00;25,44
2182,00;25,47
2179,00;25,45
2176,00;25,45
2173,00;25,46
2170,00;25,43
2167,00;25,43
2164,00;25,46
2161,00;25,47
2158,00;25,56
2155,00;25,51
2152,00;25,47
2149,00;25,46
2146,00;25,47
2143,00;25,47
2140,00;25,45
2137,00;25,46
2134,00;25,46
2131,00;25,45
2128,00;25,44
2125,00;25,42
2122,00;25,42
2119,00;25,41
2116,00;25,41
2113,00;25,40
2110,00;25,40
2107,00;25,41
2104,00;25,42
2101,00;25,42
2098,00;25,43
2095,00;25,46
2092,00;25,45
2089,00;25,44
2086,00;25,44
2083,00;25,45
2080,00;25,44
2077,00;25,45
2074,00;25,45
2071,00;25,46
2068,00;25,47
2065,00;25,48
2062,00;25,48
2059,00;25,49
2056,00;25,49
2053,00;25,50
2050,00;25,51
2047,00;25,53
2044,00;25,54
2041,00;25,54
2038,00;25,55
2035,00;25,56
2032,00;25,55
2029,00;25,57
2026,00;25,57
2023,00;25,59
2020,00;25,59
2017,00;25,60
2014,00;25,62
2011,00;25,60
2008,00;25,61
2005,00;25,60
2002,00;25,58
1999,00;25,55
1996,00;25,55
1993,00;25,57
1990,00;25,58
1987,00;25,59
1984,00;25,60
1981,00;25,62
1978,00;25,66
1975,00;25,65
1972,00;25,65
1969,00;25,65
1966,00;25,65
1963,00;25,66
1960,00;25,68
1957,00;25,65
1954,00;25,65
1951,00;25,65
1948,00;25,64
1945,00;25,64
1942,00;25,62
1939,00;25,63
1936,00;25,64
1933,00;25,65
1930,00;25,65
1927,00;25,65
1924,00;25,64
1921,00;25,63
1918,00;25,64
1915,00;25,65
1912,00;25,65
1909,00;25,65
1906,00;25,65
1903,00;25,66
1900,00;25,67
1897,00;25,67
1894,00;25,66
1891,00;25,67
1888,00;25,67
1885,00;25,68
1882,00;25,69
1879,00;25,70
1876,00;25,70
1873,00;25,71
1870,00;25,71
1867,00;25,68
1864,00;25,69
1861,00;25,73
1858,00;25,73
1855,00;25,74
1852,00;25,75
1849,00;25,75
1846,00;25,73
1843,00;25,76
1840,00;25,74
1837,00;25,76
1834,00;25,77
1831,00;25,76
1828,00;25,75
1825,00;25,75
1822,00;25,76
1819,00;25,77
1816,00;25,77
1813,00;25,78
1810,00;25,77
1807,00;25,77
1804,00;25,79
1801,00;25,78
1798,00;25,77
1795,00;25,77
1792,00;25,78
1789,00;25,78
1786,00;25,80
1783,00;25,81
1780,00;25,79
1777,00;25,79
1774,00;25,77
1771,00;25,77
1768,00;25,74
1765,00;25,77
1762,00;25,75
1759,00;25,74
1756,00;25,73
1753,00;25,72
1750,00;25,70
1747,00;25,60
1744,00;25,60
1741,00;25,57
1738,00;25,58
1735,00;25,56
1732,00;25,56
1729,00;25,44
1726,00;25,45
1723,00;25,42
1720,00;25,37
1717,00;25,36
1714,00;25,26
1711,00;25,24
1708,00;25,22
1705,00;25,16
1702,00;25,11
1699,00;25,17
1696,00;25,01
1693,00;25,07
1690,00;24,99
1687,00;24,92
1684,00;24,93
1681,00;24,82
1678,00;24,80
1675,00;24,81
1672,00;24,75
1669,00;24,67
1666,00;24,66
1663,00;24,64
1660,00;24,60
1657,00;24,57
1654,00;24,55
1651,00;24,57
1648,00;24,42
1645,00;24,40
1642,00;24,41
1639,00;24,40
1636,00;24,35
1633,00;24,34
1630,00;24,34
1627,00;24,32
1624,00;24,31
1621,00;24,30
1618,00;24,32
1615,00;24,36
1612,00;24,35
1609,00;24,37
1606,00;24,40
1603,00;24,44
1600,00;24,48
1597,00;24,52
1594,00;24,55
1591,00;24,60
1588,00;24,64
1585,00;24,68
1582,00;24,71
1579,00;24,75
1576,00;24,79
1573,00;24,81
1570,00;24,84
1567,00;24,86
1564,00;24,89
1561,00;24,95
1558,00;24,94
1555,00;24,94
1552,00;25,03
1549,00;25,02
1546,00;25,08
1543,00;25,08
1540,00;25,05
1537,00;25,12
1534,00;25,15
1531,00;25,16
1528,00;25,21
1525,00;25,22
1522,00;25,23
1519,00;25,25
1516,00;25,22
1513,00;25,29
1510,00;25,34
1507,00;25,27
1504,00;25,34
1501,00;25,37
1498,00;25,39
1495,00;25,39
1492,00;25,41
1489,00;25,35
1486,00;25,33
1483,00;25,37
1480,00;25,35
1477,00;25,34
1474,00;25,27
1471,00;25,14
1468,00;25,08
1465,00;24,98
1462,00;24,88
1459,00;24,82
1456,00;24,66
1453,00;24,60
1450,00;24,56
1447,00;24,46
1444,00;24,41
1441,00;24,37
1438,00;24,33
1435,00;24,25
1432,00;24,22
1429,00;24,19
1426,00;24,21
1423,00;24,20
1420,00;24,26
1417,00;24,27
1414,00;24,33
1411,00;24,42
1408,00;24,51
1405,00;24,58
1402,00;24,66
1399,00;24,74
1396,00;24,78
1393,00;24,85
1390,00;24,93
1387,00;24,97
1384,00;24,99
1381,00;25,01
1378,00;25,02
1375,00;25,03
1372,00;25,04
1369,00;25,10
1366,00;25,13
1363,00;25,13
1360,00;25,12
1357,00;25,16
1354,00;25,18
1351,00;25,21
1348,00;25,24
1345,00;25,28
1342,00;25,32
1339,00;25,30
1336,00;25,32
1333,00;25,39
1330,00;25,42
1327,00;25,44
1324,00;25,45
1321,00;25,47
1318,00;25,46
1315,00;25,48
1312,00;25,49
1309,00;25,52
1306,00;25,53
1303,00;25,55
1300,00;25,56
1297,00;25,56
1294,00;25,57
1291,00;25,57
1288,00;25,56
1285,00;25,54
1282,00;25,52
1279,00;25,48
1276,00;25,42
1273,00;25,34
1270,00;25,22
1267,00;25,07
1264,00;24,91
1261,00;24,76
1258,00;24,65
1255,00;24,54
1252,00;24,40
1249,00;24,23
1246,00;24,05
1243,00;23,87
1240,00;23,69
1237,00;23,51
1234,00;23,35
1231,00;23,19
1228,00;23,05
1225,00;22,91
1222,00;22,80
1219,00;22,69
1216,00;22,59
1213,00;22,51
1210,00;22,42
1207,00;22,35
1204,00;22,28
1201,00;22,22
1198,00;22,15
1195,00;22,09
1192,00;22,03
1189,00;21,97
1186,00;21,90
1183,00;21,82
1180,00;21,74
1177,00;21,64
1174,00;21,53
1171,00;21,43
1168,00;21,34
1165,00;21,28
1162,00;21,21
1159,00;21,14
1156,00;21,05
1153,00;20,96
1150,00;20,85
1147,00;20,75
1144,00;20,64
1141,00;20,54
1138,00;20,45
1135,00;20,35
1132,00;20,26
1129,00;20,18
1126,00;20,12
1123,00;20,09
1120,00;20,06
1117,00;20,06
1114,00;20,08
1111,00;20,13
1108,00;20,19
1105,00;20,26
1102,00;20,34
1099,00;20,42
1096,00;20,50
1093,00;20,58
1090,00;20,64
1087,00;20,69
1084,00;20,73
1081,00;20,75
1078,00;20,77
1075,00;20,76
1072,00;20,71
1069,00;20,64
1066,00;20,57
1063,00;20,50
1060,00;20,48
1057,00;20,51
1054,00;20,57
1051,00;20,65
1048,00;20,77
1045,00;20,91
1042,00;21,06
1039,00;21,21
1036,00;21,34
1033,00;21,47
1030,00;21,60
1027,00;21,69
1024,00;21,75
1021,00;21,78
1018,00;21,80
1015,00;21,83
1012,00;21,86
1009,00;21,88
1006,00;21,90
1003,00;21,93
1000,00;21,96
997,00;21,96
994,00;21,95
991,00;21,90
988,00;21,80
985,00;21,64
982,00;21,51
979,00;21,44
976,00;21,42
973,00;21,44
970,00;21,48
967,00;21,52
964,00;21,50
961,00;21,43
958,00;21,39
955,00;21,44
952,00;21,52
949,00;21,62
946,00;21,74
943,00;21,89
940,00;22,03
937,00;22,19
934,00;22,33
931,00;22,47
928,00;22,58
925,00;22,66
922,00;22,70
919,00;22,71
916,00;22,72
913,00;22,74
910,00;22,78
907,00;22,81
904,00;22,86
901,00;22,91
898,00;22,95
895,00;22,98
892,00;23,01
889,00;23,04
886,00;23,06
883,00;23,07
880,00;23,09
877,00;23,11
874,00;23,14
871,00;23,18
868,00;23,23
865,00;23,29
862,00;23,34
859,00;23,40
856,00;23,48
853,00;23,52
850,00;23,57
847,00;23,61
844,00;23,63
841,00;23,65
838,00;23,66
835,00;23,66
832,00;23,67
829,00;23,64
826,00;23,59
823,00;23,52
820,00;23,46
817,00;23,41
814,00;23,33
811,00;23,23
808,00;23,13
805,00;23,02
802,00;22,92
799,00;22,82
796,00;22,72
793,00;22,61
790,00;22,46
787,00;22,29
784,00;22,10
781,00;21,89
778,00;21,69
775,00;21,51
772,00;21,34
769,00;21,15
766,00;20,94
763,00;20,75
760,00;20,57
757,00;20,38
754,00;20,22
751,00;20,07
748,00;19,92
745,00;19,78
742,00;19,65
739,00;19,52
736,00;19,40
733,00;19,27
730,00;19,14
727,00;19,03
724,00;18,89
721,00;18,76
718,00;18,64
715,00;18,56
712,00;18,47
709,00;18,36
706,00;18,25
703,00;18,15
700,00;18,05
697,00;17,94
694,00;17,84
691,00;17,74
688,00;17,61
685,00;17,47
682,00;17,28
679,00;17,08
676,00;16,88
673,00;16,67
670,00;16,41
667,00;16,00
664,00;16,05
661,00;15,88
658,00;15,67
655,00;15,48
652,00;15,30
649,00;15,09
646,00;14,86
643,00;14,61
640,00;14,36
637,00;14,10
634,00;13,86
631,00;13,57
628,00;13,35
625,00;13,16
622,00;12,99
619,00;12,82
616,00;12,68
613,00;12,54
610,00;12,43
607,00;12,27
604,00;12,14
601,00;12,01
598,00;11,89
595,00;11,80
592,00;11,73
589,00;11,68
586,00;11,67
583,00;11,61
580,00;11,60
577,00;11,50
574,00;11,42
571,00;11,42
568,00;11,40
565,00;11,39
562,00;11,38
559,00;11,37
556,00;11,37
553,00;11,23
550,00;11,12
547,00;11,05
544,00;10,96
541,00;10,85
538,00;10,77
535,00;10,70
532,00;10,64
529,00;10,69
526,00;10,62
523,00;10,42
520,00;10,45
517,00;10,46
514,00;10,27
511,00;9,79
508,00;9,96
505,00;10,57
502,00;10,61
500,00;10,39