File: FTIR/LNB_28-10-2024/MoS2 pristine_1.csv
Criado como novo conjunto de dados;Amostra 001 por Analyst data segunda-feira, outubro 28 2024
cm-1;%T
4000,00;33,35
3997,00;33,36
3994,00;33,37
3991,00;33,36
3988,00;33,34
3985,00;33,34
3982,00;33,35
3979,00;33,36
3976,00;33,37
3973,00;33,38
3970,00;33,36
3967,00;33,34
3964,00;33,37
3961,00;33,37
3958,00;33,36
3955,00;33,37
3952,00;33,46
3949,00;33,50
3946,00;33,51
3943,00;33,43
3940,00;33,42
3937,00;33,36
3934,00;33,51
3931,00;33,51
3928,00;33,52
3925,00;33,52
3922,00;33,61
3919,00;33,56
3916,00;33,40
3913,00;33,30
3910,00;33,34
3907,00;33,71
3904,00;33,97
3901,00;33,87
3898,00;33,51
3895,00;33,58
3892,00;33,53
3889,00;33,79
3886,00;33,49
3883,00;33,91
3880,00;33,52
3877,00;33,70
3874,00;33,77
3871,00;33,94
3868,00;33,98
3865,00;33,71
3862,00;33,71
3859,00;33,71
3856,00;34,18
3853,00;33,94
3850,00;34,06
3847,00;33,51
3844,00;33,72
3841,00;34,21
3838,00;34,04
3835,00;34,02
3832,00;33,59
3829,00;33,65
3826,00;33,67
3823,00;34,05
3820,00;34,08
3817,00;33,75
3814,00;33,64
3811,00;33,47
3808,00;33,57
3805,00;34,06
3802,00;33,78
3799,00;34,10
3796,00;33,48
3793,00;33,37
3790,00;33,29
3787,00;33,44
3784,00;33,51
3781,00;33,59
3778,00;33,48
3775,00;33,36
3772,00;33,58
3769,00;33,64
3766,00;33,53
3763,00;33,64
3760,00;33,69
3757,00;33,87
3754,00;34,14
3751,00;34,35
3748,00;34,54
3745,00;33,78
3742,00;34,16
3739,00;34,08
3736,00;34,43
3733,00;34,09
3730,00;33,82
3727,00;33,71
3724,00;33,88
3721,00;33,72
3718,00;33,57
3715,00;33,84
3712,00;34,01
3709,00;33,77
3706,00;33,55
3703,00;33,56
3700,00;33,55
3697,00;33,43
3694,00;33,70
3691,00;34,11
3688,00;33,78
3685,00;33,57
3682,00;33,46
3679,00;33,98
3676,00;34,09
3673,00;34,29
3670,00;33,63
3667,00;33,55
3664,00;33,18
3661,00;33,27
3658,00;33,45
3655,00;33,51
3652,00;33,98
3649,00;34,20
3646,00;33,69
3643,00;33,19
3640,00;33,14
3637,00;33,20
3634,00;33,31
3631,00;33,72
3628,00;33,34
3625,00;33,20
3622,00;33,30
3619,00;33,40
3616,00;33,50
3613,00;33,29
3610,00;33,16
3607,00;32,90
3604,00;32,86
3601,00;32,95
3598,00;33,02
3595,00;32,93
3592,00;32,90
3589,00;33,00
3586,00;32,84
3583,00;32,59
3580,00;32,50
3577,00;32,48
3574,00;32,44
3571,00;32,63
3568,00;32,91
3565,00;32,70
3562,00;32,42
3559,00;32,27
3556,00;32,25
3553,00;32,30
3550,00;32,33
3547,00;32,38
3544,00;32,24
3541,00;32,06
3538,00;32,05
3535,00;32,02
3532,00;32,01
3529,00;32,11
3526,00;32,14
3523,00;32,01
3520,00;31,88
3517,00;31,82
3514,00;31,82
3511,00;31,85
3508,00;31,82
3505,00;31,86
3502,00;31,83
3499,00;31,73
3496,00;31,69
3493,00;31,64
3490,00;31,63
3487,00;31,62
3484,00;31,61
3481,00;31,60
3478,00;31,52
3475,00;31,49
3472,00;31,48
3469,00;31,48
3466,00;31,44
3463,00;31,42
3460,00;31,40
3457,00;31,33
3454,00;31,31
3451,00;31,32
3448,00;31,37
3445,00;31,34
3442,00;31,26
3439,00;31,25
3436,00;31,24
3433,00;31,21
3430,00;31,19
3427,00;31,15
3424,00;31,16
3421,00;31,17
3418,00;31,11
3415,00;31,09
3412,00;31,08
3409,00;31,06
3406,00;31,04
3403,00;31,06
3400,00;31,05
3397,00;31,01
3394,00;31,04
3391,00;31,00
3388,00;30,94
3385,00;30,94
3382,00;30,93
3379,00;30,91
3376,00;30,90
3373,00;30,89
3370,00;30,93
3367,00;30,91
3364,00;30,87
3361,00;30,86
3358,00;30,83
3355,00;30,82
3352,00;30,84
3349,00;30,80
3346,00;30,78
3343,00;30,79
3340,00;30,80
3337,00;30,79
3334,00;30,74
3331,00;30,73
3328,00;30,75
3325,00;30,74
3322,00;30,70
3319,00;30,69
3316,00;30,69
3313,00;30,70
3310,00;30,73
3307,00;30,72
3304,00;30,67
3301,00;30,64
3298,00;30,66
3295,00;30,67
3292,00;30,65
3289,00;30,61
3286,00;30,59
3283,00;30,58
3280,00;30,58
3277,00;30,60
3274,00;30,61
3271,00;30,58
3268,00;30,53
3265,00;30,51
3262,00;30,51
3259,00;30,51
3256,00;30,52
3253,00;30,49
3250,00;30,48
3247,00;30,51
3244,00;30,47
3241,00;30,45
3238,00;30,45
3235,00;30,46
3232,00;30,44
3229,00;30,41
3226,00;30,40
3223,00;30,40
3220,00;30,40
3217,00;30,39
3214,00;30,38
3211,00;30,36
3208,00;30,35
3205,00;30,33
3202,00;30,33
3199,00;30,33
3196,00;30,32
3193,00;30,30
3190,00;30,30
3187,00;30,29
3184,00;30,29
3181,00;30,29
3178,00;30,29
3175,00;30,27
3172,00;30,25
3169,00;30,24
3166,00;30,24
3163,00;30,24
3160,00;30,23
3157,00;30,24
3154,00;30,26
3151,00;30,23
3148,00;30,21
3145,00;30,20
3142,00;30,22
3139,00;30,23
3136,00;30,20
3133,00;30,21
3130,00;30,20
3127,00;30,19
3124,00;30,21
3121,00;30,23
3118,00;30,23
3115,00;30,20
3112,00;30,17
3109,00;30,17
3106,00;30,14
3103,00;30,16
3100,00;30,17
3097,00;30,14
3094,00;30,13
3091,00;30,13
3088,00;30,13
3085,00;30,14
3082,00;30,14
3079,00;30,14
3076,00;30,09
3073,00;30,07
3070,00;30,09
3067,00;30,12
3064,00;30,08
3061,00;30,05
3058,00;30,07
3055,00;30,06
3052,00;30,06
3049,00;30,06
3046,00;30,06
3043,00;30,06
3040,00;30,03
3037,00;30,04
3034,00;30,07
3031,00;30,04
3028,00;30,01
3025,00;30,02
3022,00;30,01
3019,00;30,02
3016,00;30,03
3013,00;30,04
3010,00;30,00
3007,00;29,97
3004,00;29,97
3001,00;29,97
2998,00;29,98
2995,00;29,98
2992,00;29,97
2989,00;29,95
2986,00;29,95
2983,00;29,96
2980,00;29,97
2977,00;29,96
2974,00;29,95
2971,00;29,94
2968,00;29,93
2965,00;29,92
2962,00;29,90
2959,00;29,87
2956,00;29,86
2953,00;29,86
2950,00;29,85
2947,00;29,87
2944,00;29,87
2941,00;29,86
2938,00;29,86
2935,00;29,86
2932,00;29,87
2929,00;29,85
2926,00;29,81
2923,00;29,77
2920,00;29,74
2917,00;29,73
2914,00;29,72
2911,00;29,71
2908,00;29,71
2905,00;29,72
2902,00;29,73
2899,00;29,74
2896,00;29,76
2893,00;29,76
2890,00;29,76
2887,00;29,76
2884,00;29,77
2881,00;29,78
2878,00;29,79
2875,00;29,81
2872,00;29,80
2869,00;29,79
2866,00;29,79
2863,00;29,79
2860,00;29,80
2857,00;29,79
2854,00;29,77
2851,00;29,75
2848,00;29,75
2845,00;29,74
2842,00;29,75
2839,00;29,78
2836,00;29,77
2833,00;29,78
2830,00;29,79
2827,00;29,79
2824,00;29,80
2821,00;29,81
2818,00;29,81
2815,00;29,81
2812,00;29,82
2809,00;29,82
2806,00;29,82
2803,00;29,82
2800,00;29,83
2797,00;29,83
2794,00;29,83
2791,00;29,84
2788,00;29,83
2785,00;29,83
2782,00;29,83
2779,00;29,83
2776,00;29,84
2773,00;29,84
2770,00;29,84
2767,00;29,84
2764,00;29,84
2761,00;29,84
2758,00;29,84
2755,00;29,84
2752,00;29,85
2749,00;29,85
2746,00;29,85
2743,00;29,85
2740,00;29,85
2737,00;29,85
2734,00;29,85
2731,00;29,85
2728,00;29,86
2725,00;29,86
2722,00;29,85
2719,00;29,85
2716,00;29,85
2713,00;29,85
2710,00;29,85
2707,00;29,85
2704,00;29,85
2701,00;29,85
2698,00;29,85
2695,00;29,84
2692,00;29,85
2689,00;29,85
2686,00;29,85
2683,00;29,85
2680,00;29,85
2677,00;29,85
2674,00;29,84
2671,00;29,84
2668,00;29,84
2665,00;29,84
2662,00;29,85
2659,00;29,86
2656,00;29,87
2653,00;29,87
2650,00;29,87
2647,00;29,87
2644,00;29,88
2641,00;29,88
2638,00;29,88
2635,00;29,87
2632,00;29,87
2629,00;29,87
2626,00;29,87
2623,00;29,86
2620,00;29,86
2617,00;29,85
2614,00;29,85
2611,00;29,85
2608,00;29,84
2605,00;29,83
2602,00;29,83
2599,00;29,83
2596,00;29,82
2593,00;29,82
2590,00;29,82
2587,00;29,82
2584,00;29,81
2581,00;29,81
2578,00;29,81
2575,00;29,80
2572,00;29,79
2569,00;29,79
2566,00;29,78
2563,00;29,77
2560,00;29,77
2557,00;29,77
2554,00;29,76
2551,00;29,76
2548,00;29,75
2545,00;29,75
2542,00;29,74
2539,00;29,74
2536,00;29,73
2533,00;29,72
2530,00;29,72
2527,00;29,71
2524,00;29,71
2521,00;29,71
2518,00;29,70
2515,00;29,69
2512,00;29,68
2509,00;29,68
2506,00;29,68
2503,00;29,67
2500,00;29,66
2497,00;29,67
2494,00;29,66
2491,00;29,65
2488,00;29,64
2485,00;29,64
2482,00;29,63
2479,00;29,63
2476,00;29,62
2473,00;29,62
2470,00;29,61
2467,00;29,61
2464,00;29,60
2461,00;29,60
2458,00;29,60
2455,00;29,59
2452,00;29,58
2449,00;29,58
2446,00;29,58
2443,00;29,57
2440,00;29,56
2437,00;29,55
2434,00;29,55
2431,00;29,54
2428,00;29,54
2425,00;29,53
2422,00;29,52
2419,00;29,52
2416,00;29,51
2413,00;29,51
2410,00;29,51
2407,00;29,49
2404,00;29,48
2401,00;29,48
2398,00;29,46
2395,00;29,46
2392,00;29,45
2389,00;29,46
2386,00;29,48
2383,00;29,55
2380,00;29,67
2377,00;29,78
2374,00;29,78
2371,00;29,75
2368,00;29,77
2365,00;29,84
2362,00;29,87
2359,00;29,82
2356,00;29,68
2353,00;29,36
2350,00;29,42
2347,00;29,73
2344,00;29,72
2341,00;29,94
2338,00;29,68
2335,00;29,53
2332,00;29,48
2329,00;29,36
2326,00;29,42
2323,00;29,42
2320,00;29,29
2317,00;29,23
2314,00;29,22
2311,00;29,25
2308,00;29,34
2305,00;29,37
2302,00;29,36
2299,00;29,39
2296,00;29,41
2293,00;29,41
2290,00;29,40
2287,00;29,38
2284,00;29,38
2281,00;29,35
2278,00;29,36
2275,00;29,36
2272,00;29,35
2269,00;29,35
2266,00;29,35
2263,00;29,32
2260,00;29,32
2257,00;29,32
2254,00;29,31
2251,00;29,27
2248,00;29,26
2245,00;29,27
2242,00;29,27
2239,00;29,25
2236,00;29,25
2233,00;29,25
2230,00;29,25
2227,00;29,24
2224,00;29,23
2221,00;29,22
2218,00;29,21
2215,00;29,22
2212,00;29,21
2209,00;29,20
2206,00;29,20
2203,00;29,19
2200,00;29,19
2197,00;29,20
2194,00;29,20
2191,00;29,20
2188,00;29,20
2185,00;29,20
2182,00;29,18
2179,00;29,14
2176,00;29,16
2173,00;29,15
2170,00;29,18
2167,00;29,21
2164,00;29,25
2161,00;29,28
2158,00;29,10
2155,00;28,99
2152,00;29,02
2149,00;29,05
2146,00;29,07
2143,00;29,05
2140,00;29,03
2137,00;29,03
2134,00;29,00
2131,00;28,98
2128,00;29,00
2125,00;29,02
2122,00;29,03
2119,00;29,04
2116,00;29,06
2113,00;29,08
2110,00;29,08
2107,00;29,07
2104,00;29,07
2101,00;29,07
2098,00;29,08
2095,00;29,05
2092,00;29,04
2089,00;29,08
2086,00;29,09
2083,00;29,09
2080,00;29,11
2077,00;29,12
2074,00;29,12
2071,00;29,12
2068,00;29,12
2065,00;29,14
2062,00;29,13
2059,00;29,11
2056,00;29,13
2053,00;29,18
2050,00;29,29
2047,00;29,21
2044,00;29,18
2041,00;29,19
2038,00;29,19
2035,00;29,21
2032,00;29,14
2029,00;29,13
2026,00;29,12
2023,00;29,09
2020,00;29,12
2017,00;29,15
2014,00;29,13
2011,00;29,11
2008,00;29,09
2005,00;29,01
2002,00;29,01
1999,00;29,06
1996,00;29,10
1993,00;29,13
1990,00;29,13
1987,00;29,15
1984,00;29,18
1981,00;29,24
1978,00;29,24
1975,00;29,09
1972,00;29,08
1969,00;29,12
1966,00;29,11
1963,00;29,09
1960,00;29,08
1957,00;29,03
1954,00;29,05
1951,00;29,07
1948,00;29,09
1945,00;29,10
1942,00;29,06
1939,00;29,06
1936,00;29,05
1933,00;29,06
1930,00;29,06
1927,00;29,07
1924,00;29,09
1921,00;29,10
1918,00;29,06
1915,00;29,07
1912,00;29,10
1909,00;29,13
1906,00;29,10
1903,00;29,09
1900,00;29,09
1897,00;29,12
1894,00;29,13
1891,00;29,12
1888,00;29,10
1885,00;29,10
1882,00;29,11
1879,00;29,11
1876,00;29,10
1873,00;29,14
1870,00;29,17
1867,00;29,16
1864,00;29,09
1861,00;29,12
1858,00;29,13
1855,00;29,13
1852,00;29,14
1849,00;29,18
1846,00;29,13
1843,00;29,11
1840,00;29,13
1837,00;29,16
1834,00;29,17
1831,00;29,18
1828,00;29,21
1825,00;29,14
1822,00;29,14
1819,00;29,13
1816,00;29,09
1813,00;29,17
1810,00;29,18
1807,00;29,15
1804,00;29,19
1801,00;29,21
1798,00;29,20
1795,00;29,21
1792,00;29,16
1789,00;29,16
1786,00;29,15
1783,00;29,19
1780,00;29,21
1777,00;29,22
1774,00;29,21
1771,00;29,25
1768,00;29,09
1765,00;29,18
1762,00;29,14
1759,00;29,18
1756,00;29,16
1753,00;29,18
1750,00;29,27
1747,00;29,22
1744,00;29,22
1741,00;29,12
1738,00;29,18
1735,00;29,07
1732,00;29,24
1729,00;29,08
1726,00;29,10
1723,00;29,14
1720,00;29,13
1717,00;29,22
1714,00;29,15
1711,00;29,11
1708,00;29,18
1705,00;29,20
1702,00;29,01
1699,00;29,12
1696,00;29,00
1693,00;29,23
1690,00;29,22
1687,00;29,18
1684,00;29,26
1681,00;29,19
1678,00;29,11
1675,00;29,05
1672,00;29,16
1669,00;29,06
1666,00;29,08
1663,00;29,09
1660,00;29,07
1657,00;29,12
1654,00;29,06
1651,00;29,32
1648,00;29,17
1645,00;28,98
1642,00;29,02
1639,00;29,10
1636,00;29,01
1633,00;28,99
1630,00;29,02
1627,00;29,05
1624,00;29,03
1621,00;29,05
1618,00;29,02
1615,00;29,15
1612,00;29,09
1609,00;29,14
1606,00;29,14
1603,00;29,19
1600,00;29,20
1597,00;29,24
1594,00;29,27
1591,00;29,30
1588,00;29,31
1585,00;29,33
1582,00;29,36
1579,00;29,45
1576,00;29,51
1573,00;29,56
1570,00;29,55
1567,00;29,58
1564,00;29,64
1561,00;29,64
1558,00;29,62
1555,00;29,62
1552,00;29,73
1549,00;29,72
1546,00;29,79
1543,00;29,89
1540,00;29,85
1537,00;29,96
1534,00;29,88
1531,00;29,87
1528,00;29,96
1525,00;29,99
1522,00;30,00
1519,00;30,05
1516,00;30,00
1513,00;29,96
1510,00;30,17
1507,00;30,11
1504,00;30,11
1501,00;30,12
1498,00;30,09
1495,00;30,10
1492,00;30,19
1489,00;30,22
1486,00;30,12
1483,00;30,18
1480,00;30,20
1477,00;30,24
1474,00;30,24
1471,00;30,13
1468,00;30,16
1465,00;30,16
1462,00;30,19
1459,00;30,27
1456,00;30,10
1453,00;30,19
1450,00;30,20
1447,00;30,19
1444,00;30,21
1441,00;30,27
1438,00;30,20
1435,00;30,21
1432,00;30,33
1429,00;30,33
1426,00;30,37
1423,00;30,39
1420,00;30,36
1417,00;30,38
1414,00;30,35
1411,00;30,40
1408,00;30,42
1405,00;30,44
1402,00;30,42
1399,00;30,49
1396,00;30,45
1393,00;30,42
1390,00;30,47
1387,00;30,48
1384,00;30,46
1381,00;30,48
1378,00;30,50
1375,00;30,55
1372,00;30,48
1369,00;30,52
1366,00;30,52
1363,00;30,56
1360,00;30,49
1357,00;30,53
1354,00;30,54
1351,00;30,55
1348,00;30,55
1345,00;30,56
1342,00;30,61
1339,00;30,61
1336,00;30,55
1333,00;30,57
1330,00;30,59
1327,00;30,60
1324,00;30,60
1321,00;30,63
1318,00;30,63
1315,00;30,63
1312,00;30,63
1309,00;30,64
1306,00;30,64
1303,00;30,65
1300,00;30,66
1297,00;30,67
1294,00;30,67
1291,00;30,68
1288,00;30,69
1285,00;30,69
1282,00;30,69
1279,00;30,69
1276,00;30,68
1273,00;30,68
1270,00;30,66
1267,00;30,61
1264,00;30,56
1261,00;30,50
1258,00;30,44
1255,00;30,41
1252,00;30,37
1249,00;30,32
1246,00;30,24
1243,00;30,16
1240,00;30,07
1237,00;29,97
1234,00;29,87
1231,00;29,78
1228,00;29,68
1225,00;29,58
1222,00;29,49
1219,00;29,42
1216,00;29,35
1213,00;29,27
1210,00;29,20
1207,00;29,13
1204,00;29,07
1201,00;29,00
1198,00;28,94
1195,00;28,88
1192,00;28,83
1189,00;28,78
1186,00;28,72
1183,00;28,68
1180,00;28,63
1177,00;28,59
1174,00;28,55
1171,00;28,51
1168,00;28,49
1165,00;28,46
1162,00;28,44
1159,00;28,43
1156,00;28,41
1153,00;28,39
1150,00;28,37
1147,00;28,36
1144,00;28,34
1141,00;28,33
1138,00;28,32
1135,00;28,31
1132,00;28,32
1129,00;28,32
1126,00;28,33
1123,00;28,34
1120,00;28,36
1117,00;28,38
1114,00;28,41
1111,00;28,44
1108,00;28,48
1105,00;28,52
1102,00;28,56
1099,00;28,61
1096,00;28,66
1093,00;28,71
1090,00;28,75
1087,00;28,80
1084,00;28,84
1081,00;28,87
1078,00;28,89
1075,00;28,92
1072,00;28,93
1069,00;28,93
1066,00;28,90
1063,00;28,86
1060,00;28,79
1057,00;28,72
1054,00;28,64
1051,00;28,59
1048,00;28,56
1045,00;28,54
1042,00;28,54
1039,00;28,57
1036,00;28,65
1033,00;28,76
1030,00;28,90
1027,00;29,05
1024,00;29,19
1021,00;29,33
1018,00;29,48
1015,00;29,64
1012,00;29,78
1009,00;29,92
1006,00;30,02
1003,00;30,10
1000,00;30,17
997,00;30,20
994,00;30,21
991,00;30,18
988,00;30,14
985,00;30,11
982,00;30,09
979,00;30,10
976,00;30,10
973,00;30,10
970,00;30,10
967,00;30,10
964,00;30,07
961,00;30,02
958,00;29,95
955,00;29,89
952,00;29,86
949,00;29,86
946,00;29,89
943,00;29,95
940,00;30,01
937,00;30,05
934,00;30,08
931,00;30,06
928,00;30,01
925,00;29,93
922,00;29,86
919,00;29,80
916,00;29,77
913,00;29,76
910,00;29,77
907,00;29,81
904,00;29,85
901,00;29,90
898,00;29,95
895,00;30,00
892,00;30,05
889,00;30,09
886,00;30,13
883,00;30,18
880,00;30,24
877,00;30,29
874,00;30,36
871,00;30,41
868,00;30,47
865,00;30,54
862,00;30,60
859,00;30,66
856,00;30,71
853,00;30,76
850,00;30,80
847,00;30,85
844,00;30,88
841,00;30,91
838,00;30,91
835,00;30,92
832,00;30,93
829,00;30,93
826,00;30,88
823,00;30,83
820,00;30,81
817,00;30,80
814,00;30,79
811,00;30,78
808,00;30,76
805,00;30,72
802,00;30,67
799,00;30,64
796,00;30,63
793,00;30,61
790,00;30,58
787,00;30,54
784,00;30,50
781,00;30,44
778,00;30,40
775,00;30,43
772,00;30,46
769,00;30,44
766,00;30,39
763,00;30,35
760,00;30,36
757,00;30,34
754,00;30,34
751,00;30,36
748,00;30,40
745,00;30,43
742,00;30,46
739,00;30,50
736,00;30,55
733,00;30,61
730,00;30,65
727,00;30,66
724,00;30,68
721,00;30,72
718,00;30,76
715,00;30,79
712,00;30,86
709,00;30,88
706,00;30,88
703,00;30,91
700,00;31,00
697,00;31,06
694,00;31,13
691,00;31,18
688,00;31,21
685,00;31,19
682,00;31,14
679,00;31,11
676,00;31,07
673,00;31,07
670,00;31,23
667,00;30,15
664,00;30,74
661,00;30,99
658,00;30,97
655,00;30,99
652,00;30,98
649,00;30,98
646,00;30,93
643,00;30,93
640,00;30,90
637,00;30,82
634,00;30,65
631,00;30,50
628,00;30,41
625,00;30,39
622,00;30,38
619,00;30,41
616,00;30,34
613,00;30,20
610,00;30,17
607,00;30,10
604,00;30,03
601,00;29,96
598,00;29,96
595,00;30,00
592,00;29,97
589,00;29,96
586,00;30,04
583,00;30,11
580,00;30,26
577,00;30,29
574,00;30,30
571,00;30,49
568,00;30,62
565,00;30,64
562,00;30,87
559,00;30,95
556,00;30,94
553,00;31,04
550,00;31,15
547,00;31,30
544,00;31,24
541,00;31,41
538,00;31,46
535,00;31,39
532,00;31,32
529,00;31,13
526,00;31,30
523,00;31,12
520,00;30,71
517,00;30,75
514,00;31,23
511,00;31,53
508,00;30,90
505,00;30,71
502,00;31,48
500,00;32,57