File: FTIR/LNB_28-10-2024/MoS2(1)-1H.csv
Criado como novo conjunto de dados;Amostra 002 por Analyst data segunda-feira, outubro 28 2024
cm-1;%T
4000,00;48,51
3997,00;48,52
3994,00;48,52
3991,00;48,53
3988,00;48,52
3985,00;48,51
3982,00;48,51
3979,00;48,54
3976,00;48,56
3973,00;48,57
3970,00;48,57
3967,00;48,54
3964,00;48,57
3961,00;48,57
3958,00;48,59
3955,00;48,58
3952,00;48,70
3949,00;48,76
3946,00;48,83
3943,00;48,74
3940,00;48,72
3937,00;48,62
3934,00;48,84
3931,00;48,82
3928,00;48,89
3925,00;48,83
3922,00;48,99
3919,00;48,99
3916,00;48,78
3913,00;48,66
3910,00;48,59
3907,00;49,14
3904,00;49,59
3901,00;49,71
3898,00;49,08
3895,00;49,08
3892,00;49,01
3889,00;49,34
3886,00;49,10
3883,00;49,53
3880,00;49,01
3877,00;49,35
3874,00;49,23
3871,00;49,80
3868,00;49,61
3865,00;49,43
3862,00;49,28
3859,00;49,26
3856,00;50,21
3853,00;49,97
3850,00;49,85
3847,00;48,90
3844,00;49,23
3841,00;49,97
3838,00;49,92
3835,00;49,81
3832,00;49,22
3829,00;49,21
3826,00;49,12
3823,00;49,93
3820,00;49,71
3817,00;49,80
3814,00;49,09
3811,00;48,93
3808,00;49,23
3805,00;49,67
3802,00;49,62
3799,00;49,79
3796,00;48,99
3793,00;48,89
3790,00;48,66
3787,00;48,86
3784,00;48,92
3781,00;49,18
3778,00;48,92
3775,00;48,87
3772,00;49,13
3769,00;49,19
3766,00;49,21
3763,00;49,21
3760,00;49,30
3757,00;49,51
3754,00;50,13
3751,00;50,44
3748,00;50,65
3745,00;50,11
3742,00;50,05
3739,00;49,83
3736,00;50,39
3733,00;50,20
3730,00;49,59
3727,00;49,35
3724,00;49,57
3721,00;49,38
3718,00;49,17
3715,00;49,55
3712,00;49,88
3709,00;49,56
3706,00;49,09
3703,00;49,13
3700,00;49,07
3697,00;48,95
3694,00;49,24
3691,00;49,92
3688,00;49,57
3685,00;49,20
3682,00;48,89
3679,00;49,61
3676,00;50,12
3673,00;50,37
3670,00;49,46
3667,00;49,25
3664,00;48,60
3661,00;48,65
3658,00;49,04
3655,00;49,07
3652,00;49,94
3649,00;50,15
3646,00;49,61
3643,00;48,79
3640,00;48,57
3637,00;48,65
3634,00;48,82
3631,00;49,64
3628,00;49,13
3625,00;48,98
3622,00;48,90
3619,00;49,12
3616,00;49,35
3613,00;49,04
3610,00;49,12
3607,00;48,59
3604,00;48,47
3601,00;48,47
3598,00;48,63
3595,00;48,56
3592,00;48,58
3589,00;48,81
3586,00;48,62
3583,00;48,33
3580,00;48,06
3577,00;48,06
3574,00;48,00
3571,00;48,27
3568,00;48,69
3565,00;48,55
3562,00;48,17
3559,00;47,88
3556,00;47,87
3553,00;47,90
3550,00;47,98
3547,00;48,04
3544,00;47,94
3541,00;47,73
3538,00;47,66
3535,00;47,63
3532,00;47,66
3529,00;47,75
3526,00;47,82
3523,00;47,70
3520,00;47,56
3517,00;47,45
3514,00;47,45
3511,00;47,50
3508,00;47,49
3505,00;47,56
3502,00;47,50
3499,00;47,44
3496,00;47,34
3493,00;47,30
3490,00;47,29
3487,00;47,28
3484,00;47,31
3481,00;47,28
3478,00;47,22
3475,00;47,15
3472,00;47,16
3469,00;47,16
3466,00;47,13
3463,00;47,12
3460,00;47,10
3457,00;47,03
3454,00;47,00
3451,00;47,01
3448,00;47,08
3445,00;47,07
3442,00;46,99
3439,00;46,96
3436,00;46,94
3433,00;46,91
3430,00;46,90
3427,00;46,86
3424,00;46,87
3421,00;46,89
3418,00;46,85
3415,00;46,81
3412,00;46,80
3409,00;46,78
3406,00;46,76
3403,00;46,78
3400,00;46,79
3397,00;46,75
3394,00;46,78
3391,00;46,74
3388,00;46,68
3385,00;46,66
3382,00;46,66
3379,00;46,64
3376,00;46,62
3373,00;46,61
3370,00;46,64
3367,00;46,63
3364,00;46,59
3361,00;46,58
3358,00;46,54
3355,00;46,51
3352,00;46,52
3349,00;46,48
3346,00;46,44
3343,00;46,45
3340,00;46,45
3337,00;46,43
3334,00;46,37
3331,00;46,34
3328,00;46,34
3325,00;46,33
3322,00;46,27
3319,00;46,23
3316,00;46,22
3313,00;46,21
3310,00;46,23
3307,00;46,21
3304,00;46,14
3301,00;46,08
3298,00;46,08
3295,00;46,07
3292,00;46,04
3289,00;45,97
3286,00;45,94
3283,00;45,91
3280,00;45,89
3277,00;45,89
3274,00;45,89
3271,00;45,85
3268,00;45,78
3265,00;45,75
3262,00;45,73
3259,00;45,72
3256,00;45,72
3253,00;45,67
3250,00;45,65
3247,00;45,67
3244,00;45,63
3241,00;45,60
3238,00;45,59
3235,00;45,61
3232,00;45,58
3229,00;45,55
3226,00;45,53
3223,00;45,53
3220,00;45,54
3217,00;45,54
3214,00;45,53
3211,00;45,54
3208,00;45,53
3205,00;45,52
3202,00;45,52
3199,00;45,54
3196,00;45,55
3193,00;45,55
3190,00;45,55
3187,00;45,57
3184,00;45,58
3181,00;45,60
3178,00;45,61
3175,00;45,61
3172,00;45,62
3169,00;45,64
3166,00;45,66
3163,00;45,67
3160,00;45,69
3157,00;45,71
3154,00;45,76
3151,00;45,77
3148,00;45,76
3145,00;45,77
3142,00;45,80
3139,00;45,84
3136,00;45,83
3133,00;45,85
3130,00;45,87
3127,00;45,87
3124,00;45,91
3121,00;45,96
3118,00;45,98
3115,00;45,96
3112,00;45,93
3109,00;45,94
3106,00;45,92
3103,00;45,94
3100,00;45,96
3097,00;45,94
3094,00;45,93
3091,00;45,95
3088,00;45,94
3085,00;45,96
3082,00;45,97
3079,00;45,98
3076,00;45,93
3073,00;45,90
3070,00;45,92
3067,00;45,96
3064,00;45,93
3061,00;45,91
3058,00;45,93
3055,00;45,94
3052,00;45,94
3049,00;45,94
3046,00;45,95
3043,00;45,97
3040,00;45,96
3037,00;45,97
3034,00;46,02
3031,00;46,02
3028,00;46,01
3025,00;46,02
3022,00;46,02
3019,00;46,06
3016,00;46,09
3013,00;46,12
3010,00;46,10
3007,00;46,08
3004,00;46,10
3001,00;46,11
2998,00;46,14
2995,00;46,16
2992,00;46,18
2989,00;46,16
2986,00;46,17
2983,00;46,20
2980,00;46,23
2977,00;46,23
2974,00;46,24
2971,00;46,23
2968,00;46,23
2965,00;46,24
2962,00;46,23
2959,00;46,21
2956,00;46,21
2953,00;46,23
2950,00;46,24
2947,00;46,27
2944,00;46,30
2941,00;46,29
2938,00;46,30
2935,00;46,32
2932,00;46,34
2929,00;46,35
2926,00;46,31
2923,00;46,27
2920,00;46,25
2917,00;46,24
2914,00;46,24
2911,00;46,23
2908,00;46,23
2905,00;46,25
2902,00;46,27
2899,00;46,29
2896,00;46,32
2893,00;46,32
2890,00;46,33
2887,00;46,34
2884,00;46,35
2881,00;46,36
2878,00;46,37
2875,00;46,41
2872,00;46,41
2869,00;46,39
2866,00;46,39
2863,00;46,40
2860,00;46,42
2857,00;46,41
2854,00;46,39
2851,00;46,38
2848,00;46,37
2845,00;46,36
2842,00;46,37
2839,00;46,41
2836,00;46,41
2833,00;46,42
2830,00;46,43
2827,00;46,45
2824,00;46,47
2821,00;46,48
2818,00;46,48
2815,00;46,50
2812,00;46,52
2809,00;46,53
2806,00;46,53
2803,00;46,54
2800,00;46,56
2797,00;46,58
2794,00;46,58
2791,00;46,60
2788,00;46,60
2785,00;46,60
2782,00;46,61
2779,00;46,62
2776,00;46,64
2773,00;46,64
2770,00;46,64
2767,00;46,65
2764,00;46,65
2761,00;46,66
2758,00;46,67
2755,00;46,68
2752,00;46,69
2749,00;46,70
2746,00;46,70
2743,00;46,70
2740,00;46,71
2737,00;46,71
2734,00;46,71
2731,00;46,72
2728,00;46,73
2725,00;46,74
2722,00;46,74
2719,00;46,74
2716,00;46,74
2713,00;46,74
2710,00;46,75
2707,00;46,75
2704,00;46,75
2701,00;46,76
2698,00;46,76
2695,00;46,76
2692,00;46,76
2689,00;46,77
2686,00;46,77
2683,00;46,78
2680,00;46,79
2677,00;46,79
2674,00;46,79
2671,00;46,78
2668,00;46,79
2665,00;46,79
2662,00;46,80
2659,00;46,81
2656,00;46,83
2653,00;46,84
2650,00;46,85
2647,00;46,87
2644,00;46,88
2641,00;46,90
2638,00;46,91
2635,00;46,92
2632,00;46,93
2629,00;46,94
2626,00;46,95
2623,00;46,96
2620,00;46,96
2617,00;46,97
2614,00;46,97
2611,00;46,98
2608,00;46,99
2605,00;46,99
2602,00;47,00
2599,00;47,00
2596,00;47,01
2593,00;47,01
2590,00;47,01
2587,00;47,02
2584,00;47,03
2581,00;47,03
2578,00;47,04
2575,00;47,04
2572,00;47,04
2569,00;47,04
2566,00;47,04
2563,00;47,05
2560,00;47,05
2557,00;47,04
2554,00;47,05
2551,00;47,05
2548,00;47,05
2545,00;47,06
2542,00;47,05
2539,00;47,05
2536,00;47,06
2533,00;47,06
2530,00;47,06
2527,00;47,07
2524,00;47,06
2521,00;47,07
2518,00;47,07
2515,00;47,07
2512,00;47,07
2509,00;47,07
2506,00;47,06
2503,00;47,07
2500,00;47,06
2497,00;47,06
2494,00;47,06
2491,00;47,06
2488,00;47,06
2485,00;47,06
2482,00;47,06
2479,00;47,06
2476,00;47,07
2473,00;47,06
2470,00;47,06
2467,00;47,06
2464,00;47,06
2461,00;47,06
2458,00;47,06
2455,00;47,05
2452,00;47,06
2449,00;47,06
2446,00;47,06
2443,00;47,06
2440,00;47,06
2437,00;47,06
2434,00;47,06
2431,00;47,06
2428,00;47,05
2425,00;47,06
2422,00;47,06
2419,00;47,06
2416,00;47,06
2413,00;47,06
2410,00;47,06
2407,00;47,06
2404,00;47,06
2401,00;47,05
2398,00;47,05
2395,00;47,05
2392,00;47,05
2389,00;47,05
2386,00;47,09
2383,00;47,16
2380,00;47,28
2377,00;47,37
2374,00;47,31
2371,00;47,23
2368,00;47,25
2365,00;47,34
2362,00;47,41
2359,00;47,42
2356,00;47,28
2353,00;46,99
2350,00;46,93
2347,00;47,54
2344,00;46,74
2341,00;47,41
2338,00;47,31
2335,00;47,10
2332,00;47,13
2329,00;46,88
2326,00;46,94
2323,00;46,97
2320,00;46,80
2317,00;46,74
2314,00;46,77
2311,00;46,76
2308,00;47,01
2305,00;47,04
2302,00;47,06
2299,00;47,09
2296,00;47,09
2293,00;47,11
2290,00;47,22
2287,00;47,19
2284,00;47,19
2281,00;47,19
2278,00;47,19
2275,00;47,22
2272,00;47,23
2269,00;47,23
2266,00;47,24
2263,00;47,25
2260,00;47,24
2257,00;47,24
2254,00;47,25
2251,00;47,26
2248,00;47,25
2245,00;47,25
2242,00;47,25
2239,00;47,26
2236,00;47,26
2233,00;47,26
2230,00;47,26
2227,00;47,27
2224,00;47,28
2221,00;47,28
2218,00;47,29
2215,00;47,30
2212,00;47,30
2209,00;47,30
2206,00;47,29
2203,00;47,29
2200,00;47,32
2197,00;47,33
2194,00;47,34
2191,00;47,34
2188,00;47,33
2185,00;47,34
2182,00;47,36
2179,00;47,36
2176,00;47,38
2173,00;47,39
2170,00;47,39
2167,00;47,40
2164,00;47,40
2161,00;47,44
2158,00;47,48
2155,00;47,43
2152,00;47,42
2149,00;47,42
2146,00;47,42
2143,00;47,42
2140,00;47,41
2137,00;47,40
2134,00;47,38
2131,00;47,37
2128,00;47,35
2125,00;47,33
2122,00;47,35
2119,00;47,35
2116,00;47,35
2113,00;47,35
2110,00;47,36
2107,00;47,38
2104,00;47,38
2101,00;47,39
2098,00;47,40
2095,00;47,42
2092,00;47,40
2089,00;47,41
2086,00;47,42
2083,00;47,44
2080,00;47,46
2077,00;47,47
2074,00;47,49
2071,00;47,50
2068,00;47,52
2065,00;47,54
2062,00;47,54
2059,00;47,55
2056,00;47,56
2053,00;47,61
2050,00;47,67
2047,00;47,67
2044,00;47,69
2041,00;47,70
2038,00;47,69
2035,00;47,71
2032,00;47,74
2029,00;47,76
2026,00;47,74
2023,00;47,74
2020,00;47,77
2017,00;47,76
2014,00;47,73
2011,00;47,76
2008,00;47,74
2005,00;47,68
2002,00;47,69
1999,00;47,70
1996,00;47,73
1993,00;47,77
1990,00;47,76
1987,00;47,74
1984,00;47,76
1981,00;47,81
1978,00;47,88
1975,00;47,86
1972,00;47,84
1969,00;47,89
1966,00;47,87
1963,00;47,85
1960,00;47,82
1957,00;47,80
1954,00;47,82
1951,00;47,82
1948,00;47,82
1945,00;47,85
1942,00;47,83
1939,00;47,80
1936,00;47,81
1933,00;47,81
1930,00;47,81
1927,00;47,83
1924,00;47,87
1921,00;47,85
1918,00;47,81
1915,00;47,83
1912,00;47,86
1909,00;47,87
1906,00;47,86
1903,00;47,87
1900,00;47,87
1897,00;47,90
1894,00;47,91
1891,00;47,92
1888,00;47,90
1885,00;47,90
1882,00;47,91
1879,00;47,91
1876,00;47,91
1873,00;47,96
1870,00;48,03
1867,00;47,99
1864,00;47,94
1861,00;47,97
1858,00;47,98
1855,00;47,98
1852,00;48,00
1849,00;48,05
1846,00;48,04
1843,00;48,01
1840,00;48,01
1837,00;48,05
1834,00;48,07
1831,00;48,11
1828,00;48,12
1825,00;48,06
1822,00;48,06
1819,00;48,06
1816,00;48,04
1813,00;48,11
1810,00;48,11
1807,00;48,08
1804,00;48,13
1801,00;48,15
1798,00;48,15
1795,00;48,17
1792,00;48,13
1789,00;48,11
1786,00;48,12
1783,00;48,16
1780,00;48,17
1777,00;48,19
1774,00;48,21
1771,00;48,22
1768,00;48,08
1765,00;48,16
1762,00;48,15
1759,00;48,17
1756,00;48,16
1753,00;48,18
1750,00;48,26
1747,00;48,20
1744,00;48,20
1741,00;48,12
1738,00;48,16
1735,00;48,06
1732,00;48,15
1729,00;48,01
1726,00;48,01
1723,00;48,05
1720,00;48,04
1717,00;48,09
1714,00;47,98
1711,00;47,95
1708,00;48,01
1705,00;48,03
1702,00;47,87
1699,00;47,96
1696,00;47,79
1693,00;47,96
1690,00;47,95
1687,00;47,90
1684,00;47,95
1681,00;47,83
1678,00;47,75
1675,00;47,70
1672,00;47,76
1669,00;47,65
1666,00;47,62
1663,00;47,63
1660,00;47,60
1657,00;47,65
1654,00;47,63
1651,00;47,87
1648,00;47,77
1645,00;47,66
1642,00;47,73
1639,00;47,86
1636,00;47,82
1633,00;47,81
1630,00;47,85
1627,00;47,90
1624,00;47,91
1621,00;47,93
1618,00;47,91
1615,00;48,01
1612,00;47,97
1609,00;48,03
1606,00;48,04
1603,00;48,09
1600,00;48,11
1597,00;48,15
1594,00;48,18
1591,00;48,21
1588,00;48,23
1585,00;48,26
1582,00;48,30
1579,00;48,38
1576,00;48,43
1573,00;48,46
1570,00;48,48
1567,00;48,50
1564,00;48,56
1561,00;48,58
1558,00;48,57
1555,00;48,54
1552,00;48,65
1549,00;48,65
1546,00;48,72
1543,00;48,81
1540,00;48,77
1537,00;48,86
1534,00;48,82
1531,00;48,81
1528,00;48,89
1525,00;48,93
1522,00;48,94
1519,00;48,99
1516,00;48,95
1513,00;48,92
1510,00;49,10
1507,00;49,04
1504,00;49,05
1501,00;49,06
1498,00;49,04
1495,00;49,05
1492,00;49,13
1489,00;49,15
1486,00;49,05
1483,00;49,09
1480,00;49,10
1477,00;49,12
1474,00;49,09
1471,00;48,98
1468,00;48,96
1465,00;48,93
1462,00;48,93
1459,00;48,96
1456,00;48,77
1453,00;48,80
1450,00;48,78
1447,00;48,72
1444,00;48,71
1441,00;48,73
1438,00;48,64
1435,00;48,62
1432,00;48,69
1429,00;48,68
1426,00;48,71
1423,00;48,74
1420,00;48,71
1417,00;48,77
1414,00;48,79
1411,00;48,87
1408,00;48,94
1405,00;49,01
1402,00;49,04
1399,00;49,15
1396,00;49,15
1393,00;49,18
1390,00;49,24
1387,00;49,29
1384,00;49,30
1381,00;49,33
1378,00;49,37
1375,00;49,43
1372,00;49,41
1369,00;49,45
1366,00;49,48
1363,00;49,51
1360,00;49,47
1357,00;49,51
1354,00;49,54
1351,00;49,56
1348,00;49,58
1345,00;49,60
1342,00;49,66
1339,00;49,67
1336,00;49,64
1333,00;49,69
1330,00;49,71
1327,00;49,73
1324,00;49,74
1321,00;49,77
1318,00;49,78
1315,00;49,78
1312,00;49,79
1309,00;49,80
1306,00;49,82
1303,00;49,84
1300,00;49,87
1297,00;49,88
1294,00;49,89
1291,00;49,91
1288,00;49,92
1285,00;49,91
1282,00;49,91
1279,00;49,91
1276,00;49,89
1273,00;49,87
1270,00;49,83
1267,00;49,78
1264,00;49,72
1261,00;49,67
1258,00;49,63
1255,00;49,61
1252,00;49,58
1249,00;49,54
1246,00;49,49
1243,00;49,44
1240,00;49,39
1237,00;49,34
1234,00;49,29
1231,00;49,25
1228,00;49,22
1225,00;49,18
1222,00;49,14
1219,00;49,13
1216,00;49,12
1213,00;49,10
1210,00;49,08
1207,00;49,07
1204,00;49,05
1201,00;49,04
1198,00;49,02
1195,00;49,01
1192,00;49,02
1189,00;49,01
1186,00;49,01
1183,00;49,02
1180,00;49,03
1177,00;49,04
1174,00;49,04
1171,00;49,05
1168,00;49,06
1165,00;49,08
1162,00;49,10
1159,00;49,10
1156,00;49,11
1153,00;49,11
1150,00;49,10
1147,00;49,11
1144,00;49,11
1141,00;49,11
1138,00;49,11
1135,00;49,12
1132,00;49,13
1129,00;49,14
1126,00;49,15
1123,00;49,17
1120,00;49,18
1117,00;49,18
1114,00;49,20
1111,00;49,23
1108,00;49,26
1105,00;49,30
1102,00;49,35
1099,00;49,38
1096,00;49,42
1093,00;49,44
1090,00;49,45
1087,00;49,46
1084,00;49,45
1081,00;49,45
1078,00;49,44
1075,00;49,44
1072,00;49,43
1069,00;49,40
1066,00;49,37
1063,00;49,33
1060,00;49,31
1057,00;49,30
1054,00;49,29
1051,00;49,29
1048,00;49,30
1045,00;49,30
1042,00;49,32
1039,00;49,34
1036,00;49,38
1033,00;49,42
1030,00;49,51
1027,00;49,61
1024,00;49,70
1021,00;49,80
1018,00;49,90
1015,00;49,99
1012,00;50,07
1009,00;50,13
1006,00;50,17
1003,00;50,21
1000,00;50,24
997,00;50,27
994,00;50,28
991,00;50,26
988,00;50,23
985,00;50,17
982,00;50,13
979,00;50,11
976,00;50,11
973,00;50,12
970,00;50,13
967,00;50,12
964,00;50,08
961,00;50,04
958,00;50,01
955,00;50,03
952,00;50,06
949,00;50,10
946,00;50,15
943,00;50,22
940,00;50,30
937,00;50,37
934,00;50,44
931,00;50,50
928,00;50,52
925,00;50,51
922,00;50,47
919,00;50,43
916,00;50,38
913,00;50,34
910,00;50,32
907,00;50,31
904,00;50,32
901,00;50,34
898,00;50,35
895,00;50,36
892,00;50,37
889,00;50,37
886,00;50,38
883,00;50,39
880,00;50,40
877,00;50,41
874,00;50,44
871,00;50,48
868,00;50,53
865,00;50,57
862,00;50,62
859,00;50,67
856,00;50,72
853,00;50,75
850,00;50,80
847,00;50,84
844,00;50,86
841,00;50,88
838,00;50,91
835,00;50,94
832,00;50,95
829,00;50,95
826,00;50,92
823,00;50,89
820,00;50,86
817,00;50,83
814,00;50,80
811,00;50,76
808,00;50,72
805,00;50,67
802,00;50,62
799,00;50,60
796,00;50,59
793,00;50,54
790,00;50,50
787,00;50,44
784,00;50,37
781,00;50,27
778,00;50,20
775,00;50,17
772,00;50,13
769,00;50,04
766,00;49,93
763,00;49,85
760,00;49,79
757,00;49,72
754,00;49,66
751,00;49,62
748,00;49,60
745,00;49,58
742,00;49,55
739,00;49,52
736,00;49,49
733,00;49,46
730,00;49,44
727,00;49,39
724,00;49,33
721,00;49,30
718,00;49,30
715,00;49,27
712,00;49,27
709,00;49,27
706,00;49,22
703,00;49,20
700,00;49,20
697,00;49,20
694,00;49,19
691,00;49,15
688,00;49,05
685,00;48,94
682,00;48,79
679,00;48,69
676,00;48,58
673,00;48,48
670,00;48,52
667,00;47,15
664,00;47,70
661,00;48,02
658,00;47,90
655,00;47,82
652,00;47,68
649,00;47,57
646,00;47,46
643,00;47,35
640,00;47,22
637,00;47,08
634,00;46,87
631,00;46,66
628,00;46,52
625,00;46,40
622,00;46,33
619,00;46,26
616,00;46,20
613,00;46,07
610,00;45,95
607,00;45,87
604,00;45,80
601,00;45,74
598,00;45,71
595,00;45,66
592,00;45,59
589,00;45,53
586,00;45,47
583,00;45,46
580,00;45,41
577,00;45,31
574,00;45,21
571,00;45,14
568,00;45,07
565,00;44,99
562,00;44,91
559,00;44,68
556,00;44,48
553,00;44,29
550,00;44,08
547,00;43,92
544,00;43,78
541,00;43,74
538,00;43,71
535,00;43,69
532,00;43,70
529,00;43,95
526,00;43,69
523,00;43,75
520,00;43,95
517,00;44,02
514,00;44,16
511,00;43,95
508,00;44,42
505,00;45,30
502,00;44,63
500,00;43,34