File: FTIR/LNB_28-10-2024/MoS2-NS-Amônia.csv
Criado como novo conjunto de dados;Amostra 013 por Analyst data segunda-feira, outubro 28 2024
cm-1;%T
4000,00;64,36
3997,00;64,37
3994,00;64,37
3991,00;64,38
3988,00;64,39
3985,00;64,41
3982,00;64,41
3979,00;64,43
3976,00;64,43
3973,00;64,44
3970,00;64,45
3967,00;64,46
3964,00;64,48
3961,00;64,48
3958,00;64,49
3955,00;64,50
3952,00;64,52
3949,00;64,51
3946,00;64,51
3943,00;64,52
3940,00;64,54
3937,00;64,57
3934,00;64,59
3931,00;64,56
3928,00;64,58
3925,00;64,60
3922,00;64,61
3919,00;64,62
3916,00;64,61
3913,00;64,66
3910,00;64,71
3907,00;64,71
3904,00;64,66
3901,00;64,60
3898,00;64,63
3895,00;64,73
3892,00;64,73
3889,00;64,78
3886,00;64,76
3883,00;64,80
3880,00;64,73
3877,00;64,83
3874,00;64,84
3871,00;64,82
3868,00;64,87
3865,00;64,86
3862,00;64,88
3859,00;64,93
3856,00;64,89
3853,00;65,04
3850,00;64,96
3847,00;65,00
3844,00;65,05
3841,00;65,05
3838,00;65,03
3835,00;65,06
3832,00;65,07
3829,00;65,16
3826,00;65,17
3823,00;65,16
3820,00;65,18
3817,00;65,18
3814,00;65,29
3811,00;65,29
3808,00;65,34
3805,00;65,41
3802,00;65,34
3799,00;65,40
3796,00;65,35
3793,00;65,44
3790,00;65,50
3787,00;65,55
3784,00;65,54
3781,00;65,56
3778,00;65,57
3775,00;65,62
3772,00;65,66
3769,00;65,67
3766,00;65,66
3763,00;65,73
3760,00;65,75
3757,00;65,75
3754,00;65,78
3751,00;65,86
3748,00;65,83
3745,00;65,76
3742,00;65,94
3739,00;65,90
3736,00;65,91
3733,00;65,84
3730,00;66,01
3727,00;66,06
3724,00;66,09
3721,00;66,10
3718,00;66,14
3715,00;66,22
3712,00;66,28
3709,00;66,22
3706,00;66,31
3703,00;66,36
3700,00;66,40
3697,00;66,45
3694,00;66,48
3691,00;66,49
3688,00;66,49
3685,00;66,56
3682,00;66,62
3679,00;66,65
3676,00;66,61
3673,00;66,65
3670,00;66,67
3667,00;66,72
3664,00;66,80
3661,00;66,84
3658,00;66,82
3655,00;66,85
3652,00;66,78
3649,00;66,76
3646,00;66,66
3643,00;66,76
3640,00;66,80
3637,00;66,79
3634,00;66,72
3631,00;66,63
3628,00;66,57
3625,00;66,49
3622,00;66,46
3619,00;66,36
3616,00;66,28
3613,00;66,18
3610,00;66,13
3607,00;66,05
3604,00;65,99
3601,00;65,94
3598,00;65,83
3595,00;65,75
3592,00;65,67
3589,00;65,61
3586,00;65,45
3583,00;65,42
3580,00;65,42
3577,00;65,38
3574,00;65,33
3571,00;65,28
3568,00;65,20
3565,00;65,03
3562,00;65,04
3559,00;65,04
3556,00;65,04
3553,00;65,00
3550,00;64,94
3547,00;64,89
3544,00;64,78
3541,00;64,79
3538,00;64,81
3535,00;64,75
3532,00;64,76
3529,00;64,73
3526,00;64,67
3523,00;64,60
3520,00;64,59
3517,00;64,60
3514,00;64,57
3511,00;64,54
3508,00;64,51
3505,00;64,50
3502,00;64,41
3499,00;64,39
3496,00;64,38
3493,00;64,36
3490,00;64,36
3487,00;64,31
3484,00;64,30
3481,00;64,26
3478,00;64,22
3475,00;64,22
3472,00;64,20
3469,00;64,15
3466,00;64,11
3463,00;64,12
3460,00;64,09
3457,00;64,08
3454,00;64,07
3451,00;64,06
3448,00;64,03
3445,00;63,98
3442,00;63,97
3439,00;63,95
3436,00;63,90
3433,00;63,88
3430,00;63,87
3427,00;63,86
3424,00;63,87
3421,00;63,84
3418,00;63,81
3415,00;63,81
3412,00;63,78
3409,00;63,77
3406,00;63,77
3403,00;63,75
3400,00;63,71
3397,00;63,72
3394,00;63,72
3391,00;63,69
3388,00;63,71
3385,00;63,72
3382,00;63,72
3379,00;63,71
3376,00;63,70
3373,00;63,70
3370,00;63,68
3367,00;63,65
3364,00;63,67
3361,00;63,68
3358,00;63,68
3355,00;63,69
3352,00;63,67
3349,00;63,65
3346,00;63,67
3343,00;63,66
3340,00;63,65
3337,00;63,64
3334,00;63,64
3331,00;63,64
3328,00;63,63
3325,00;63,60
3322,00;63,59
3319,00;63,59
3316,00;63,57
3313,00;63,54
3310,00;63,51
3307,00;63,46
3304,00;63,42
3301,00;63,41
3298,00;63,38
3295,00;63,33
3292,00;63,28
3289,00;63,23
3286,00;63,21
3283,00;63,16
3280,00;63,11
3277,00;63,06
3274,00;63,00
3271,00;62,93
3268,00;62,88
3265,00;62,85
3262,00;62,80
3259,00;62,76
3256,00;62,70
3253,00;62,64
3250,00;62,61
3247,00;62,56
3244,00;62,50
3241,00;62,47
3238,00;62,43
3235,00;62,40
3232,00;62,34
3229,00;62,31
3226,00;62,28
3223,00;62,26
3220,00;62,23
3217,00;62,20
3214,00;62,18
3211,00;62,15
3208,00;62,14
3205,00;62,12
3202,00;62,10
3199,00;62,10
3196,00;62,08
3193,00;62,07
3190,00;62,07
3187,00;62,07
3184,00;62,07
3181,00;62,08
3178,00;62,08
3175,00;62,08
3172,00;62,10
3169,00;62,12
3166,00;62,13
3163,00;62,15
3160,00;62,17
3157,00;62,19
3154,00;62,22
3151,00;62,22
3148,00;62,25
3145,00;62,28
3142,00;62,30
3139,00;62,32
3136,00;62,33
3133,00;62,37
3130,00;62,38
3127,00;62,40
3124,00;62,43
3121,00;62,43
3118,00;62,42
3115,00;62,43
3112,00;62,45
3109,00;62,47
3106,00;62,47
3103,00;62,48
3100,00;62,47
3097,00;62,46
3094,00;62,47
3091,00;62,45
3088,00;62,43
3085,00;62,41
3082,00;62,39
3079,00;62,37
3076,00;62,36
3073,00;62,38
3070,00;62,38
3067,00;62,35
3064,00;62,33
3061,00;62,34
3058,00;62,35
3055,00;62,33
3052,00;62,33
3049,00;62,32
3046,00;62,32
3043,00;62,31
3040,00;62,31
3037,00;62,34
3034,00;62,34
3031,00;62,34
3028,00;62,36
3025,00;62,38
3022,00;62,39
3019,00;62,41
3016,00;62,42
3013,00;62,42
3010,00;62,44
3007,00;62,49
3004,00;62,52
3001,00;62,53
2998,00;62,54
2995,00;62,55
2992,00;62,55
2989,00;62,56
2986,00;62,58
2983,00;62,57
2980,00;62,54
2977,00;62,54
2974,00;62,55
2971,00;62,56
2968,00;62,58
2965,00;62,60
2962,00;62,62
2959,00;62,65
2956,00;62,68
2953,00;62,71
2950,00;62,75
2947,00;62,79
2944,00;62,82
2941,00;62,86
2938,00;62,89
2935,00;62,92
2932,00;62,94
2929,00;62,95
2926,00;62,96
2923,00;62,97
2920,00;62,98
2917,00;62,99
2914,00;63,00
2911,00;63,02
2908,00;63,04
2905,00;63,07
2902,00;63,09
2899,00;63,11
2896,00;63,14
2893,00;63,15
2890,00;63,18
2887,00;63,20
2884,00;63,22
2881,00;63,24
2878,00;63,26
2875,00;63,29
2872,00;63,29
2869,00;63,30
2866,00;63,33
2863,00;63,35
2860,00;63,37
2857,00;63,39
2854,00;63,41
2851,00;63,42
2848,00;63,44
2845,00;63,45
2842,00;63,48
2839,00;63,52
2836,00;63,54
2833,00;63,57
2830,00;63,59
2827,00;63,62
2824,00;63,65
2821,00;63,69
2818,00;63,73
2815,00;63,76
2812,00;63,80
2809,00;63,83
2806,00;63,87
2803,00;63,91
2800,00;63,95
2797,00;63,98
2794,00;64,02
2791,00;64,06
2788,00;64,10
2785,00;64,14
2782,00;64,18
2779,00;64,22
2776,00;64,26
2773,00;64,30
2770,00;64,34
2767,00;64,38
2764,00;64,42
2761,00;64,46
2758,00;64,49
2755,00;64,53
2752,00;64,57
2749,00;64,61
2746,00;64,64
2743,00;64,68
2740,00;64,72
2737,00;64,75
2734,00;64,78
2731,00;64,82
2728,00;64,86
2725,00;64,89
2722,00;64,92
2719,00;64,96
2716,00;64,99
2713,00;65,03
2710,00;65,06
2707,00;65,10
2704,00;65,13
2701,00;65,16
2698,00;65,20
2695,00;65,23
2692,00;65,27
2689,00;65,30
2686,00;65,33
2683,00;65,36
2680,00;65,39
2677,00;65,42
2674,00;65,46
2671,00;65,49
2668,00;65,52
2665,00;65,55
2662,00;65,58
2659,00;65,62
2656,00;65,67
2653,00;65,74
2650,00;65,80
2647,00;65,87
2644,00;65,94
2641,00;66,00
2638,00;66,07
2635,00;66,13
2632,00;66,19
2629,00;66,25
2626,00;66,30
2623,00;66,35
2620,00;66,41
2617,00;66,46
2614,00;66,51
2611,00;66,56
2608,00;66,60
2605,00;66,65
2602,00;66,70
2599,00;66,74
2596,00;66,78
2593,00;66,82
2590,00;66,86
2587,00;66,90
2584,00;66,94
2581,00;66,98
2578,00;67,01
2575,00;67,05
2572,00;67,08
2569,00;67,12
2566,00;67,15
2563,00;67,18
2560,00;67,22
2557,00;67,25
2554,00;67,28
2551,00;67,31
2548,00;67,34
2545,00;67,37
2542,00;67,40
2539,00;67,43
2536,00;67,46
2533,00;67,48
2530,00;67,51
2527,00;67,54
2524,00;67,57
2521,00;67,60
2518,00;67,62
2515,00;67,65
2512,00;67,67
2509,00;67,70
2506,00;67,73
2503,00;67,76
2500,00;67,78
2497,00;67,80
2494,00;67,83
2491,00;67,85
2488,00;67,87
2485,00;67,89
2482,00;67,92
2479,00;67,95
2476,00;67,97
2473,00;67,99
2470,00;68,01
2467,00;68,03
2464,00;68,05
2461,00;68,08
2458,00;68,09
2455,00;68,11
2452,00;68,13
2449,00;68,16
2446,00;68,18
2443,00;68,22
2440,00;68,25
2437,00;68,28
2434,00;68,31
2431,00;68,33
2428,00;68,34
2425,00;68,37
2422,00;68,40
2419,00;68,42
2416,00;68,44
2413,00;68,46
2410,00;68,47
2407,00;68,51
2404,00;68,53
2401,00;68,55
2398,00;68,56
2395,00;68,57
2392,00;68,58
2389,00;68,59
2386,00;68,60
2383,00;68,61
2380,00;68,61
2377,00;68,63
2374,00;68,64
2371,00;68,64
2368,00;68,63
2365,00;68,60
2362,00;68,56
2359,00;68,50
2356,00;68,46
2353,00;68,37
2350,00;68,39
2347,00;68,73
2344,00;68,71
2341,00;68,64
2338,00;68,63
2335,00;68,63
2332,00;68,67
2329,00;68,66
2326,00;68,60
2323,00;68,60
2320,00;68,74
2317,00;68,84
2314,00;68,94
2311,00;69,02
2308,00;69,08
2305,00;69,14
2302,00;69,21
2299,00;69,25
2296,00;69,29
2293,00;69,32
2290,00;69,34
2287,00;69,36
2284,00;69,41
2281,00;69,49
2278,00;69,55
2275,00;69,60
2272,00;69,64
2269,00;69,68
2266,00;69,73
2263,00;69,78
2260,00;69,81
2257,00;69,83
2254,00;69,89
2251,00;69,93
2248,00;69,95
2245,00;69,99
2242,00;70,01
2239,00;70,02
2236,00;70,06
2233,00;70,10
2230,00;70,13
2227,00;70,16
2224,00;70,17
2221,00;70,20
2218,00;70,24
2215,00;70,28
2212,00;70,32
2209,00;70,34
2206,00;70,36
2203,00;70,37
2200,00;70,39
2197,00;70,42
2194,00;70,45
2191,00;70,47
2188,00;70,48
2185,00;70,53
2182,00;70,60
2179,00;70,61
2176,00;70,65
2173,00;70,70
2170,00;70,63
2167,00;70,62
2164,00;70,61
2161,00;70,61
2158,00;71,05
2155,00;71,17
2152,00;71,09
2149,00;71,02
2146,00;71,02
2143,00;71,03
2140,00;71,02
2137,00;71,05
2134,00;71,13
2131,00;71,12
2128,00;71,05
2125,00;71,05
2122,00;71,03
2119,00;71,00
2116,00;70,99
2113,00;70,99
2110,00;71,02
2107,00;71,05
2104,00;71,08
2101,00;71,09
2098,00;71,12
2095,00;71,18
2092,00;71,21
2089,00;71,19
2086,00;71,19
2083,00;71,21
2080,00;71,23
2077,00;71,27
2074,00;71,30
2071,00;71,32
2068,00;71,36
2065,00;71,39
2062,00;71,42
2059,00;71,45
2056,00;71,48
2053,00;71,48
2050,00;71,43
2047,00;71,57
2044,00;71,64
2041,00;71,68
2038,00;71,72
2035,00;71,77
2032,00;71,84
2029,00;71,85
2026,00;71,88
2023,00;71,89
2020,00;71,94
2017,00;71,94
2014,00;71,94
2011,00;71,96
2008,00;72,03
2005,00;72,10
2002,00;72,06
1999,00;72,03
1996,00;72,02
1993,00;72,02
1990,00;72,03
1987,00;72,06
1984,00;72,06
1981,00;72,02
1978,00;72,14
1975,00;72,35
1972,00;72,41
1969,00;72,47
1966,00;72,44
1963,00;72,47
1960,00;72,54
1957,00;72,57
1954,00;72,55
1951,00;72,55
1948,00;72,57
1945,00;72,60
1942,00;72,59
1939,00;72,62
1936,00;72,65
1933,00;72,68
1930,00;72,69
1927,00;72,72
1924,00;72,73
1921,00;72,72
1918,00;72,74
1915,00;72,77
1912,00;72,81
1909,00;72,81
1906,00;72,84
1903,00;72,87
1900,00;72,89
1897,00;72,92
1894,00;72,93
1891,00;72,95
1888,00;72,96
1885,00;73,00
1882,00;73,02
1879,00;73,04
1876,00;73,07
1873,00;73,09
1870,00;73,11
1867,00;73,09
1864,00;73,12
1861,00;73,16
1858,00;73,18
1855,00;73,21
1852,00;73,24
1849,00;73,26
1846,00;73,26
1843,00;73,27
1840,00;73,30
1837,00;73,34
1834,00;73,36
1831,00;73,37
1828,00;73,36
1825,00;73,39
1822,00;73,43
1819,00;73,47
1816,00;73,48
1813,00;73,48
1810,00;73,47
1807,00;73,47
1804,00;73,49
1801,00;73,49
1798,00;73,52
1795,00;73,54
1792,00;73,55
1789,00;73,58
1786,00;73,62
1783,00;73,65
1780,00;73,66
1777,00;73,70
1774,00;73,72
1771,00;73,72
1768,00;73,71
1765,00;73,77
1762,00;73,76
1759,00;73,78
1756,00;73,78
1753,00;73,80
1750,00;73,78
1747,00;73,74
1744,00;73,75
1741,00;73,74
1738,00;73,72
1735,00;73,68
1732,00;73,64
1729,00;73,52
1726,00;73,47
1723,00;73,35
1720,00;73,18
1717,00;73,02
1714,00;72,76
1711,00;72,62
1708,00;72,47
1705,00;72,28
1702,00;72,16
1699,00;72,13
1696,00;72,04
1693,00;72,01
1690,00;71,89
1687,00;71,75
1684,00;71,58
1681,00;71,31
1678,00;71,13
1675,00;70,90
1672,00;70,66
1669,00;70,31
1666,00;70,10
1663,00;69,89
1660,00;69,63
1657,00;69,45
1654,00;69,30
1651,00;68,96
1648,00;68,80
1645,00;68,45
1642,00;68,33
1639,00;68,15
1636,00;67,87
1633,00;67,53
1630,00;67,39
1627,00;67,07
1624,00;66,82
1621,00;66,51
1618,00;66,43
1615,00;66,15
1612,00;66,10
1609,00;66,04
1606,00;65,99
1603,00;66,01
1600,00;66,07
1597,00;66,20
1594,00;66,35
1591,00;66,56
1588,00;66,79
1585,00;67,02
1582,00;67,26
1579,00;67,52
1576,00;67,82
1573,00;68,05
1570,00;68,34
1567,00;68,66
1564,00;69,00
1561,00;69,29
1558,00;69,55
1555,00;69,88
1552,00;70,18
1549,00;70,38
1546,00;70,61
1543,00;70,79
1540,00;71,03
1537,00;71,24
1534,00;71,34
1531,00;71,49
1528,00;71,62
1525,00;71,73
1522,00;71,83
1519,00;71,94
1516,00;72,00
1513,00;72,14
1510,00;72,19
1507,00;72,21
1504,00;72,39
1501,00;72,40
1498,00;72,38
1495,00;72,36
1492,00;72,30
1489,00;72,17
1486,00;72,14
1483,00;72,11
1480,00;71,97
1477,00;71,78
1474,00;71,52
1471,00;71,14
1468,00;70,88
1465,00;70,42
1462,00;69,92
1459,00;69,44
1456,00;68,66
1453,00;68,24
1450,00;67,76
1447,00;67,16
1444,00;66,70
1441,00;66,22
1438,00;65,78
1435,00;65,22
1432,00;65,00
1429,00;64,72
1426,00;64,59
1423,00;64,46
1420,00;64,51
1417,00;64,55
1414,00;64,84
1411,00;65,14
1408,00;65,51
1405,00;65,90
1402,00;66,35
1399,00;66,77
1396,00;67,18
1393,00;67,61
1390,00;68,00
1387,00;68,30
1384,00;68,62
1381,00;68,94
1378,00;69,22
1375,00;69,44
1372,00;69,70
1369,00;70,03
1366,00;70,36
1363,00;70,64
1360,00;70,93
1357,00;71,17
1354,00;71,34
1351,00;71,48
1348,00;71,61
1345,00;71,74
1342,00;71,85
1339,00;71,91
1336,00;72,04
1333,00;72,16
1330,00;72,22
1327,00;72,23
1324,00;72,20
1321,00;72,17
1318,00;72,14
1315,00;72,18
1312,00;72,25
1309,00;72,38
1306,00;72,53
1303,00;72,70
1300,00;72,86
1297,00;73,00
1294,00;73,13
1291,00;73,25
1288,00;73,36
1285,00;73,45
1282,00;73,52
1279,00;73,56
1276,00;73,57
1273,00;73,54
1270,00;73,49
1267,00;73,41
1264,00;73,28
1261,00;73,11
1258,00;72,91
1255,00;72,69
1252,00;72,45
1249,00;72,18
1246,00;71,87
1243,00;71,56
1240,00;71,25
1237,00;70,95
1234,00;70,66
1231,00;70,37
1228,00;70,09
1225,00;69,78
1222,00;69,46
1219,00;69,12
1216,00;68,74
1213,00;68,35
1210,00;67,93
1207,00;67,50
1204,00;67,09
1201,00;66,68
1198,00;66,30
1195,00;65,95
1192,00;65,62
1189,00;65,33
1186,00;65,08
1183,00;64,87
1180,00;64,71
1177,00;64,61
1174,00;64,59
1171,00;64,61
1168,00;64,65
1165,00;64,70
1162,00;64,75
1159,00;64,80
1156,00;64,83
1153,00;64,84
1150,00;64,83
1147,00;64,80
1144,00;64,72
1141,00;64,57
1138,00;64,35
1135,00;64,05
1132,00;63,69
1129,00;63,30
1126,00;62,92
1123,00;62,62
1120,00;62,42
1117,00;62,31
1114,00;62,32
1111,00;62,43
1108,00;62,66
1105,00;63,03
1102,00;63,52
1099,00;64,07
1096,00;64,66
1093,00;65,26
1090,00;65,82
1087,00;66,32
1084,00;66,74
1081,00;67,08
1078,00;67,34
1075,00;67,54
1072,00;67,71
1069,00;67,81
1066,00;67,81
1063,00;67,67
1060,00;67,40
1057,00;67,09
1054,00;66,76
1051,00;66,38
1048,00;65,93
1045,00;65,32
1042,00;64,65
1039,00;64,11
1036,00;63,75
1033,00;63,57
1030,00;63,63
1027,00;63,89
1024,00;64,25
1021,00;64,73
1018,00;65,48
1015,00;66,45
1012,00;67,36
1009,00;68,07
1006,00;68,62
1003,00;69,06
1000,00;69,40
997,00;69,64
994,00;69,84
991,00;69,93
988,00;69,77
985,00;69,35
982,00;68,87
979,00;68,34
976,00;67,69
973,00;66,90
970,00;66,00
967,00;64,99
964,00;63,93
961,00;62,84
958,00;61,78
955,00;60,75
952,00;59,75
949,00;58,80
946,00;57,97
943,00;57,31
940,00;56,94
937,00;56,92
934,00;57,19
931,00;57,65
928,00;58,08
925,00;58,27
922,00;58,14
919,00;57,78
916,00;57,32
913,00;56,87
910,00;56,52
907,00;56,34
904,00;56,40
901,00;56,70
898,00;57,23
895,00;57,94
892,00;58,72
889,00;59,50
886,00;60,16
883,00;60,69
880,00;61,06
877,00;61,32
874,00;61,50
871,00;61,64
868,00;61,76
865,00;61,87
862,00;61,95
859,00;62,03
856,00;62,12
853,00;62,22
850,00;62,34
847,00;62,49
844,00;62,66
841,00;62,85
838,00;63,03
835,00;63,19
832,00;63,32
829,00;63,42
826,00;63,45
823,00;63,38
820,00;63,24
817,00;63,01
814,00;62,68
811,00;62,30
808,00;61,89
805,00;61,45
802,00;60,96
799,00;60,45
796,00;59,94
793,00;59,46
790,00;59,01
787,00;58,61
784,00;58,19
781,00;57,73
778,00;57,26
775,00;56,80
772,00;56,40
769,00;56,06
766,00;55,77
763,00;55,51
760,00;55,31
757,00;55,15
754,00;55,06
751,00;54,97
748,00;54,90
745,00;54,81
742,00;54,71
739,00;54,62
736,00;54,53
733,00;54,39
730,00;54,25
727,00;54,11
724,00;53,97
721,00;53,85
718,00;53,73
715,00;53,63
712,00;53,51
709,00;53,43
706,00;53,36
703,00;53,33
700,00;53,34
697,00;53,38
694,00;53,45
691,00;53,59
688,00;53,71
685,00;53,85
682,00;53,99
679,00;54,11
676,00;54,17
673,00;54,18
670,00;54,12
667,00;53,74
664,00;53,73
661,00;53,58
658,00;53,38
655,00;53,34
652,00;53,32
649,00;53,38
646,00;53,46
643,00;53,50
640,00;53,48
637,00;53,35
634,00;53,23
631,00;53,13
628,00;53,01
625,00;52,86
622,00;52,67
619,00;52,53
616,00;52,41
613,00;52,28
610,00;52,18
607,00;52,09
604,00;52,15
601,00;52,17
598,00;52,20
595,00;52,20
592,00;52,21
589,00;52,16
586,00;52,13
583,00;52,09
580,00;52,13
577,00;52,19
574,00;52,32
571,00;52,33
568,00;52,41
565,00;52,50
562,00;52,64
559,00;52,87
556,00;53,05
553,00;53,40
550,00;53,59
547,00;53,81
544,00;53,97
541,00;54,23
538,00;54,46
535,00;54,63
532,00;54,93
529,00;55,06
526,00;55,13
523,00;55,40
520,00;55,44
517,00;55,61
514,00;55,61
511,00;55,81
508,00;56,14
505,00;56,02
502,00;55,50
500,00;55,32