File: FTIR/LNB_28-10-2024/MoS2(1)-2H.csv
Criado como novo conjunto de dados;Amostra 004 por Analyst data segunda-feira, outubro 28 2024
cm-1;%T
4000,00;27,10
3997,00;27,10
3994,00;27,09
3991,00;27,08
3988,00;27,08
3985,00;27,08
3982,00;27,08
3979,00;27,07
3976,00;27,07
3973,00;27,06
3970,00;27,06
3967,00;27,06
3964,00;27,07
3961,00;27,06
3958,00;27,05
3955,00;27,05
3952,00;27,05
3949,00;27,04
3946,00;27,01
3943,00;27,00
3940,00;27,01
3937,00;27,03
3934,00;27,05
3931,00;27,01
3928,00;26,98
3925,00;26,99
3922,00;26,99
3919,00;26,97
3916,00;26,96
3913,00;26,98
3910,00;27,03
3907,00;27,03
3904,00;26,95
3901,00;26,86
3898,00;26,82
3895,00;26,92
3892,00;26,93
3889,00;26,96
3886,00;26,90
3883,00;26,97
3880,00;26,83
3877,00;26,93
3874,00;26,92
3871,00;26,91
3868,00;26,88
3865,00;26,83
3862,00;26,88
3859,00;26,90
3856,00;26,90
3853,00;26,93
3850,00;26,93
3847,00;26,87
3844,00;26,95
3841,00;26,94
3838,00;26,84
3835,00;26,85
3832,00;26,83
3829,00;26,93
3826,00;26,93
3823,00;26,93
3820,00;26,87
3817,00;26,83
3814,00;26,95
3811,00;26,94
3808,00;26,99
3805,00;27,02
3802,00;26,88
3799,00;26,94
3796,00;26,84
3793,00;26,95
3790,00;27,00
3787,00;27,04
3784,00;27,01
3781,00;26,99
3778,00;26,97
3775,00;26,98
3772,00;27,02
3769,00;26,98
3766,00;26,93
3763,00;26,96
3760,00;26,94
3757,00;26,92
3754,00;26,90
3751,00;26,95
3748,00;26,85
3745,00;26,70
3742,00;26,93
3739,00;26,86
3736,00;26,91
3733,00;26,77
3730,00;26,87
3727,00;26,95
3724,00;26,96
3721,00;26,90
3718,00;26,94
3715,00;27,00
3712,00;27,01
3709,00;26,91
3706,00;26,94
3703,00;27,00
3700,00;27,01
3697,00;27,02
3694,00;27,05
3691,00;27,01
3688,00;26,91
3685,00;26,97
3682,00;26,99
3679,00;27,02
3676,00;26,92
3673,00;26,86
3670,00;26,79
3667,00;26,90
3664,00;26,95
3661,00;27,03
3658,00;27,01
3655,00;26,97
3652,00;26,90
3649,00;26,83
3646,00;26,68
3643,00;26,80
3640,00;26,92
3637,00;26,95
3634,00;26,92
3631,00;26,87
3628,00;26,74
3625,00;26,75
3622,00;26,78
3619,00;26,72
3616,00;26,68
3613,00;26,62
3610,00;26,64
3607,00;26,66
3604,00;26,67
3601,00;26,71
3598,00;26,67
3595,00;26,62
3592,00;26,60
3589,00;26,58
3586,00;26,49
3583,00;26,50
3580,00;26,55
3577,00;26,56
3574,00;26,54
3571,00;26,54
3568,00;26,48
3565,00;26,33
3562,00;26,35
3559,00;26,42
3556,00;26,44
3553,00;26,43
3550,00;26,39
3547,00;26,37
3544,00;26,31
3541,00;26,31
3538,00;26,34
3535,00;26,32
3532,00;26,31
3529,00;26,29
3526,00;26,25
3523,00;26,22
3520,00;26,21
3517,00;26,22
3514,00;26,23
3511,00;26,21
3508,00;26,17
3505,00;26,17
3502,00;26,13
3499,00;26,11
3496,00;26,13
3493,00;26,11
3490,00;26,11
3487,00;26,10
3484,00;26,08
3481,00;26,07
3478,00;26,04
3475,00;26,03
3472,00;26,03
3469,00;26,03
3466,00;26,00
3463,00;25,97
3460,00;25,97
3457,00;25,94
3454,00;25,94
3451,00;25,93
3448,00;25,92
3445,00;25,87
3442,00;25,86
3439,00;25,88
3436,00;25,88
3433,00;25,86
3430,00;25,84
3427,00;25,82
3424,00;25,81
3421,00;25,80
3418,00;25,77
3415,00;25,77
3412,00;25,77
3409,00;25,75
3406,00;25,74
3403,00;25,74
3400,00;25,73
3397,00;25,71
3394,00;25,70
3391,00;25,69
3388,00;25,66
3385,00;25,65
3382,00;25,65
3379,00;25,64
3376,00;25,63
3373,00;25,62
3370,00;25,63
3367,00;25,61
3364,00;25,58
3361,00;25,58
3358,00;25,56
3355,00;25,55
3352,00;25,56
3349,00;25,54
3346,00;25,52
3343,00;25,53
3340,00;25,52
3337,00;25,50
3334,00;25,47
3331,00;25,46
3328,00;25,46
3325,00;25,46
3322,00;25,43
3319,00;25,42
3316,00;25,41
3313,00;25,40
3310,00;25,40
3307,00;25,39
3304,00;25,36
3301,00;25,33
3298,00;25,32
3295,00;25,32
3292,00;25,29
3289,00;25,26
3286,00;25,24
3283,00;25,23
3280,00;25,21
3277,00;25,19
3274,00;25,18
3271,00;25,17
3268,00;25,14
3265,00;25,11
3262,00;25,09
3259,00;25,08
3256,00;25,07
3253,00;25,04
3250,00;25,04
3247,00;25,04
3244,00;25,00
3241,00;24,98
3238,00;24,97
3235,00;24,98
3232,00;24,96
3229,00;24,93
3226,00;24,92
3223,00;24,91
3220,00;24,90
3217,00;24,88
3214,00;24,87
3211,00;24,86
3208,00;24,86
3205,00;24,85
3202,00;24,83
3199,00;24,83
3196,00;24,82
3193,00;24,81
3190,00;24,81
3187,00;24,80
3184,00;24,79
3181,00;24,78
3178,00;24,78
3175,00;24,77
3172,00;24,77
3169,00;24,77
3166,00;24,76
3163,00;24,76
3160,00;24,76
3157,00;24,76
3154,00;24,77
3151,00;24,77
3148,00;24,75
3145,00;24,74
3142,00;24,75
3139,00;24,75
3136,00;24,73
3133,00;24,72
3130,00;24,73
3127,00;24,72
3124,00;24,72
3121,00;24,73
3118,00;24,73
3115,00;24,71
3112,00;24,69
3109,00;24,69
3106,00;24,67
3103,00;24,66
3100,00;24,66
3097,00;24,64
3094,00;24,63
3091,00;24,64
3088,00;24,63
3085,00;24,63
3082,00;24,62
3079,00;24,61
3076,00;24,58
3073,00;24,57
3070,00;24,57
3067,00;24,57
3064,00;24,55
3061,00;24,54
3058,00;24,55
3055,00;24,54
3052,00;24,54
3049,00;24,54
3046,00;24,54
3043,00;24,54
3040,00;24,53
3037,00;24,53
3034,00;24,53
3031,00;24,52
3028,00;24,51
3025,00;24,53
3022,00;24,53
3019,00;24,54
3016,00;24,55
3013,00;24,55
3010,00;24,53
3007,00;24,53
3004,00;24,54
3001,00;24,55
2998,00;24,56
2995,00;24,56
2992,00;24,56
2989,00;24,56
2986,00;24,56
2983,00;24,56
2980,00;24,57
2977,00;24,56
2974,00;24,56
2971,00;24,54
2968,00;24,52
2965,00;24,50
2962,00;24,47
2959,00;24,43
2956,00;24,40
2953,00;24,39
2950,00;24,37
2947,00;24,38
2944,00;24,39
2941,00;24,38
2938,00;24,38
2935,00;24,37
2932,00;24,35
2929,00;24,32
2926,00;24,26
2923,00;24,19
2920,00;24,11
2917,00;24,07
2914,00;24,05
2911,00;24,06
2908,00;24,08
2905,00;24,11
2902,00;24,15
2899,00;24,18
2896,00;24,22
2893,00;24,23
2890,00;24,25
2887,00;24,27
2884,00;24,28
2881,00;24,30
2878,00;24,31
2875,00;24,32
2872,00;24,33
2869,00;24,31
2866,00;24,31
2863,00;24,30
2860,00;24,30
2857,00;24,28
2854,00;24,26
2851,00;24,24
2848,00;24,23
2845,00;24,23
2842,00;24,25
2839,00;24,28
2836,00;24,31
2833,00;24,33
2830,00;24,35
2827,00;24,38
2824,00;24,40
2821,00;24,41
2818,00;24,43
2815,00;24,44
2812,00;24,45
2809,00;24,46
2806,00;24,47
2803,00;24,48
2800,00;24,49
2797,00;24,50
2794,00;24,50
2791,00;24,52
2788,00;24,52
2785,00;24,52
2782,00;24,52
2779,00;24,53
2776,00;24,55
2773,00;24,55
2770,00;24,55
2767,00;24,56
2764,00;24,57
2761,00;24,57
2758,00;24,57
2755,00;24,58
2752,00;24,59
2749,00;24,60
2746,00;24,60
2743,00;24,60
2740,00;24,60
2737,00;24,61
2734,00;24,61
2731,00;24,62
2728,00;24,62
2725,00;24,63
2722,00;24,63
2719,00;24,63
2716,00;24,63
2713,00;24,64
2710,00;24,64
2707,00;24,64
2704,00;24,65
2701,00;24,65
2698,00;24,66
2695,00;24,66
2692,00;24,66
2689,00;24,67
2686,00;24,67
2683,00;24,67
2680,00;24,68
2677,00;24,68
2674,00;24,69
2671,00;24,68
2668,00;24,68
2665,00;24,68
2662,00;24,69
2659,00;24,69
2656,00;24,70
2653,00;24,70
2650,00;24,70
2647,00;24,71
2644,00;24,71
2641,00;24,72
2638,00;24,72
2635,00;24,72
2632,00;24,73
2629,00;24,73
2626,00;24,73
2623,00;24,73
2620,00;24,73
2617,00;24,73
2614,00;24,73
2611,00;24,74
2608,00;24,74
2605,00;24,74
2602,00;24,74
2599,00;24,74
2596,00;24,73
2593,00;24,74
2590,00;24,74
2587,00;24,74
2584,00;24,75
2581,00;24,74
2578,00;24,74
2575,00;24,74
2572,00;24,74
2569,00;24,74
2566,00;24,73
2563,00;24,74
2560,00;24,74
2557,00;24,73
2554,00;24,73
2551,00;24,73
2548,00;24,73
2545,00;24,73
2542,00;24,73
2539,00;24,73
2536,00;24,72
2533,00;24,72
2530,00;24,72
2527,00;24,72
2524,00;24,71
2521,00;24,71
2518,00;24,71
2515,00;24,71
2512,00;24,70
2509,00;24,71
2506,00;24,71
2503,00;24,70
2500,00;24,70
2497,00;24,70
2494,00;24,69
2491,00;24,69
2488,00;24,68
2485,00;24,68
2482,00;24,68
2479,00;24,69
2476,00;24,68
2473,00;24,68
2470,00;24,68
2467,00;24,68
2464,00;24,67
2461,00;24,67
2458,00;24,67
2455,00;24,66
2452,00;24,67
2449,00;24,66
2446,00;24,66
2443,00;24,66
2440,00;24,66
2437,00;24,66
2434,00;24,65
2431,00;24,65
2428,00;24,65
2425,00;24,65
2422,00;24,65
2419,00;24,64
2416,00;24,64
2413,00;24,65
2410,00;24,65
2407,00;24,64
2404,00;24,64
2401,00;24,64
2398,00;24,64
2395,00;24,64
2392,00;24,63
2389,00;24,61
2386,00;24,61
2383,00;24,66
2380,00;24,68
2377,00;24,64
2374,00;24,61
2371,00;24,60
2368,00;24,60
2365,00;24,60
2362,00;24,56
2359,00;24,53
2356,00;24,52
2353,00;24,55
2350,00;24,46
2347,00;24,71
2344,00;24,68
2341,00;24,53
2338,00;24,46
2335,00;24,44
2332,00;24,44
2329,00;24,39
2326,00;24,40
2323,00;24,43
2320,00;24,40
2317,00;24,43
2314,00;24,48
2311,00;24,48
2308,00;24,50
2305,00;24,51
2302,00;24,53
2299,00;24,54
2296,00;24,54
2293,00;24,55
2290,00;24,55
2287,00;24,55
2284,00;24,56
2281,00;24,59
2278,00;24,58
2275,00;24,59
2272,00;24,59
2269,00;24,58
2266,00;24,59
2263,00;24,58
2260,00;24,57
2257,00;24,57
2254,00;24,58
2251,00;24,57
2248,00;24,58
2245,00;24,58
2242,00;24,58
2239,00;24,58
2236,00;24,58
2233,00;24,58
2230,00;24,56
2227,00;24,55
2224,00;24,57
2221,00;24,58
2218,00;24,57
2215,00;24,56
2212,00;24,55
2209,00;24,57
2206,00;24,56
2203,00;24,54
2200,00;24,53
2197,00;24,55
2194,00;24,55
2191,00;24,56
2188,00;24,55
2185,00;24,54
2182,00;24,56
2179,00;24,55
2176,00;24,54
2173,00;24,55
2170,00;24,55
2167,00;24,55
2164,00;24,55
2161,00;24,56
2158,00;24,67
2155,00;24,61
2152,00;24,58
2149,00;24,58
2146,00;24,56
2143,00;24,57
2140,00;24,56
2137,00;24,56
2134,00;24,57
2131,00;24,54
2128,00;24,53
2125,00;24,53
2122,00;24,52
2119,00;24,52
2116,00;24,52
2113,00;24,52
2110,00;24,53
2107,00;24,51
2104,00;24,51
2101,00;24,53
2098,00;24,54
2095,00;24,55
2092,00;24,53
2089,00;24,54
2086,00;24,54
2083,00;24,54
2080,00;24,55
2077,00;24,55
2074,00;24,55
2071,00;24,56
2068,00;24,56
2065,00;24,56
2062,00;24,57
2059,00;24,58
2056,00;24,60
2053,00;24,61
2050,00;24,63
2047,00;24,63
2044,00;24,63
2041,00;24,60
2038,00;24,62
2035,00;24,65
2032,00;24,66
2029,00;24,64
2026,00;24,62
2023,00;24,64
2020,00;24,64
2017,00;24,62
2014,00;24,65
2011,00;24,66
2008,00;24,64
2005,00;24,63
2002,00;24,63
1999,00;24,62
1996,00;24,60
1993,00;24,62
1990,00;24,64
1987,00;24,62
1984,00;24,64
1981,00;24,67
1978,00;24,71
1975,00;24,73
1972,00;24,72
1969,00;24,72
1966,00;24,71
1963,00;24,68
1960,00;24,71
1957,00;24,70
1954,00;24,67
1951,00;24,67
1948,00;24,68
1945,00;24,69
1942,00;24,68
1939,00;24,67
1936,00;24,69
1933,00;24,69
1930,00;24,68
1927,00;24,69
1924,00;24,69
1921,00;24,68
1918,00;24,69
1915,00;24,70
1912,00;24,70
1909,00;24,71
1906,00;24,71
1903,00;24,72
1900,00;24,73
1897,00;24,73
1894,00;24,73
1891,00;24,73
1888,00;24,73
1885,00;24,74
1882,00;24,75
1879,00;24,76
1876,00;24,76
1873,00;24,77
1870,00;24,78
1867,00;24,75
1864,00;24,75
1861,00;24,79
1858,00;24,79
1855,00;24,79
1852,00;24,80
1849,00;24,81
1846,00;24,78
1843,00;24,81
1840,00;24,79
1837,00;24,82
1834,00;24,83
1831,00;24,82
1828,00;24,81
1825,00;24,80
1822,00;24,83
1819,00;24,84
1816,00;24,84
1813,00;24,86
1810,00;24,84
1807,00;24,84
1804,00;24,86
1801,00;24,86
1798,00;24,85
1795,00;24,85
1792,00;24,86
1789,00;24,85
1786,00;24,87
1783,00;24,88
1780,00;24,87
1777,00;24,87
1774,00;24,86
1771,00;24,86
1768,00;24,82
1765,00;24,86
1762,00;24,85
1759,00;24,84
1756,00;24,83
1753,00;24,83
1750,00;24,84
1747,00;24,74
1744,00;24,75
1741,00;24,73
1738,00;24,75
1735,00;24,72
1732,00;24,75
1729,00;24,64
1726,00;24,66
1723,00;24,64
1720,00;24,59
1717,00;24,59
1714,00;24,49
1711,00;24,49
1708,00;24,50
1705,00;24,45
1702,00;24,38
1699,00;24,47
1696,00;24,33
1693,00;24,43
1690,00;24,38
1687,00;24,34
1684,00;24,38
1681,00;24,29
1678,00;24,29
1675,00;24,32
1672,00;24,31
1669,00;24,25
1666,00;24,26
1663,00;24,28
1660,00;24,25
1657,00;24,24
1654,00;24,23
1651,00;24,25
1648,00;24,12
1645,00;24,06
1642,00;24,09
1639,00;24,09
1636,00;24,03
1633,00;24,00
1630,00;24,00
1627,00;23,98
1624,00;23,96
1621,00;23,94
1618,00;23,96
1615,00;23,99
1612,00;23,98
1609,00;24,00
1606,00;24,01
1603,00;24,04
1600,00;24,07
1597,00;24,10
1594,00;24,12
1591,00;24,15
1588,00;24,19
1585,00;24,22
1582,00;24,25
1579,00;24,28
1576,00;24,31
1573,00;24,32
1570,00;24,35
1567,00;24,36
1564,00;24,39
1561,00;24,43
1558,00;24,41
1555,00;24,40
1552,00;24,50
1549,00;24,49
1546,00;24,55
1543,00;24,55
1540,00;24,52
1537,00;24,58
1534,00;24,61
1531,00;24,62
1528,00;24,67
1525,00;24,68
1522,00;24,69
1519,00;24,70
1516,00;24,68
1513,00;24,74
1510,00;24,80
1507,00;24,73
1504,00;24,78
1501,00;24,83
1498,00;24,85
1495,00;24,83
1492,00;24,85
1489,00;24,78
1486,00;24,74
1483,00;24,79
1480,00;24,76
1477,00;24,71
1474,00;24,61
1471,00;24,43
1468,00;24,35
1465,00;24,22
1462,00;24,09
1459,00;24,01
1456,00;23,79
1453,00;23,72
1450,00;23,64
1447,00;23,51
1444,00;23,43
1441,00;23,35
1438,00;23,27
1435,00;23,14
1432,00;23,10
1429,00;23,06
1426,00;23,06
1423,00;23,05
1420,00;23,10
1417,00;23,10
1414,00;23,18
1411,00;23,30
1408,00;23,41
1405,00;23,50
1402,00;23,61
1399,00;23,72
1396,00;23,79
1393,00;23,88
1390,00;23,99
1387,00;24,06
1384,00;24,10
1381,00;24,15
1378,00;24,18
1375,00;24,22
1372,00;24,25
1369,00;24,34
1366,00;24,39
1363,00;24,41
1360,00;24,41
1357,00;24,49
1354,00;24,52
1351,00;24,56
1348,00;24,60
1345,00;24,64
1342,00;24,68
1339,00;24,67
1336,00;24,69
1333,00;24,77
1330,00;24,80
1327,00;24,83
1324,00;24,86
1321,00;24,88
1318,00;24,88
1315,00;24,91
1312,00;24,94
1309,00;24,97
1306,00;24,99
1303,00;25,02
1300,00;25,04
1297,00;25,06
1294,00;25,08
1291,00;25,10
1288,00;25,11
1285,00;25,12
1282,00;25,13
1279,00;25,12
1276,00;25,09
1273,00;25,05
1270,00;24,97
1267,00;24,87
1264,00;24,75
1261,00;24,65
1258,00;24,56
1255,00;24,49
1252,00;24,40
1249,00;24,28
1246,00;24,13
1243,00;23,99
1240,00;23,85
1237,00;23,69
1234,00;23,54
1231,00;23,39
1228,00;23,24
1225,00;23,10
1222,00;22,96
1219,00;22,84
1216,00;22,73
1213,00;22,63
1210,00;22,53
1207,00;22,44
1204,00;22,36
1201,00;22,28
1198,00;22,20
1195,00;22,12
1192,00;22,04
1189,00;21,96
1186,00;21,87
1183,00;21,79
1180,00;21,71
1177,00;21,62
1174,00;21,52
1171,00;21,42
1168,00;21,35
1165,00;21,29
1162,00;21,22
1159,00;21,14
1156,00;21,06
1153,00;20,95
1150,00;20,84
1147,00;20,73
1144,00;20,63
1141,00;20,53
1138,00;20,44
1135,00;20,36
1132,00;20,28
1129,00;20,22
1126,00;20,16
1123,00;20,10
1120,00;20,05
1117,00;20,02
1114,00;19,99
1111,00;20,00
1108,00;20,02
1105,00;20,04
1102,00;20,09
1099,00;20,13
1096,00;20,18
1093,00;20,24
1090,00;20,28
1087,00;20,32
1084,00;20,38
1081,00;20,43
1078,00;20,47
1075,00;20,51
1072,00;20,53
1069,00;20,54
1066,00;20,54
1063,00;20,53
1060,00;20,57
1057,00;20,62
1054,00;20,68
1051,00;20,75
1048,00;20,82
1045,00;20,89
1042,00;20,96
1039,00;21,03
1036,00;21,09
1033,00;21,17
1030,00;21,28
1027,00;21,40
1024,00;21,53
1021,00;21,63
1018,00;21,72
1015,00;21,80
1012,00;21,87
1009,00;21,92
1006,00;21,95
1003,00;21,98
1000,00;22,01
997,00;22,05
994,00;22,08
991,00;22,06
988,00;21,99
985,00;21,88
982,00;21,78
979,00;21,72
976,00;21,69
973,00;21,68
970,00;21,69
967,00;21,67
964,00;21,56
961,00;21,37
958,00;21,25
955,00;21,27
952,00;21,32
949,00;21,36
946,00;21,43
943,00;21,52
940,00;21,63
937,00;21,75
934,00;21,88
931,00;22,00
928,00;22,11
925,00;22,19
922,00;22,22
919,00;22,22
916,00;22,21
913,00;22,21
910,00;22,23
907,00;22,25
904,00;22,28
901,00;22,33
898,00;22,39
895,00;22,45
892,00;22,51
889,00;22,55
886,00;22,59
883,00;22,63
880,00;22,67
877,00;22,72
874,00;22,77
871,00;22,82
868,00;22,89
865,00;22,95
862,00;23,01
859,00;23,08
856,00;23,13
853,00;23,19
850,00;23,24
847,00;23,27
844,00;23,32
841,00;23,34
838,00;23,36
835,00;23,37
832,00;23,38
829,00;23,37
826,00;23,34
823,00;23,28
820,00;23,22
817,00;23,16
814,00;23,07
811,00;22,98
808,00;22,90
805,00;22,81
802,00;22,74
799,00;22,68
796,00;22,65
793,00;22,58
790,00;22,49
787,00;22,38
784,00;22,26
781,00;22,10
778,00;21,95
775,00;21,85
772,00;21,74
769,00;21,61
766,00;21,47
763,00;21,34
760,00;21,21
757,00;21,09
754,00;20,99
751,00;20,91
748,00;20,83
745,00;20,75
742,00;20,67
739,00;20,60
736,00;20,53
733,00;20,47
730,00;20,40
727,00;20,32
724,00;20,22
721,00;20,16
718,00;20,10
715,00;20,06
712,00;20,03
709,00;19,98
706,00;19,93
703,00;19,88
700,00;19,82
697,00;19,80
694,00;19,76
691,00;19,71
688,00;19,66
685,00;19,55
682,00;19,40
679,00;19,27
676,00;19,11
673,00;18,95
670,00;18,73
667,00;18,29
664,00;18,41
661,00;18,32
658,00;18,22
655,00;18,07
652,00;17,94
649,00;17,79
646,00;17,64
643,00;17,50
640,00;17,32
637,00;17,13
634,00;16,93
631,00;16,65
628,00;16,41
625,00;16,21
622,00;16,02
619,00;15,82
616,00;15,67
613,00;15,51
610,00;15,34
607,00;15,18
604,00;15,03
601,00;14,89
598,00;14,73
595,00;14,63
592,00;14,51
589,00;14,52
586,00;14,46
583,00;14,39
580,00;14,34
577,00;14,35
574,00;14,37
571,00;14,29
568,00;14,29
565,00;14,32
562,00;14,29
559,00;14,29
556,00;14,25
553,00;14,28
550,00;14,28
547,00;14,10
544,00;14,13
541,00;14,07
538,00;13,85
535,00;13,60
532,00;13,58
529,00;13,61
526,00;13,40
523,00;13,30
520,00;13,16
517,00;13,03
514,00;12,70
511,00;12,27
508,00;11,99
505,00;11,46
502,00;10,01
500,00;9,85