File: FTIR/LNB_28-10-2024/MoS2(2)-1H.csv
Criado como novo conjunto de dados;Amostra 011 por Analyst data segunda-feira, outubro 28 2024
cm-1;%T
4000,00;16,86
3997,00;16,86
3994,00;16,85
3991,00;16,84
3988,00;16,84
3985,00;16,84
3982,00;16,84
3979,00;16,84
3976,00;16,84
3973,00;16,82
3970,00;16,81
3967,00;16,82
3964,00;16,83
3961,00;16,81
3958,00;16,80
3955,00;16,81
3952,00;16,81
3949,00;16,80
3946,00;16,77
3943,00;16,76
3940,00;16,76
3937,00;16,78
3934,00;16,80
3931,00;16,75
3928,00;16,74
3925,00;16,74
3922,00;16,74
3919,00;16,73
3916,00;16,71
3913,00;16,73
3910,00;16,77
3907,00;16,77
3904,00;16,70
3901,00;16,60
3898,00;16,58
3895,00;16,67
3892,00;16,67
3889,00;16,71
3886,00;16,66
3883,00;16,70
3880,00;16,58
3877,00;16,67
3874,00;16,66
3871,00;16,63
3868,00;16,62
3865,00;16,59
3862,00;16,61
3859,00;16,64
3856,00;16,57
3853,00;16,66
3850,00;16,62
3847,00;16,61
3844,00;16,68
3841,00;16,66
3838,00;16,56
3835,00;16,58
3832,00;16,56
3829,00;16,65
3826,00;16,64
3823,00;16,63
3820,00;16,59
3817,00;16,53
3814,00;16,65
3811,00;16,64
3808,00;16,67
3805,00;16,71
3802,00;16,58
3799,00;16,64
3796,00;16,55
3793,00;16,64
3790,00;16,70
3787,00;16,73
3784,00;16,70
3781,00;16,68
3778,00;16,65
3775,00;16,66
3772,00;16,69
3769,00;16,66
3766,00;16,62
3763,00;16,64
3760,00;16,64
3757,00;16,60
3754,00;16,57
3751,00;16,61
3748,00;16,52
3745,00;16,38
3742,00;16,61
3739,00;16,55
3736,00;16,58
3733,00;16,43
3730,00;16,55
3727,00;16,61
3724,00;16,62
3721,00;16,57
3718,00;16,60
3715,00;16,64
3712,00;16,65
3709,00;16,55
3706,00;16,59
3703,00;16,64
3700,00;16,64
3697,00;16,66
3694,00;16,67
3691,00;16,62
3688,00;16,54
3685,00;16,59
3682,00;16,62
3679,00;16,63
3676,00;16,53
3673,00;16,47
3670,00;16,42
3667,00;16,49
3664,00;16,55
3661,00;16,62
3658,00;16,59
3655,00;16,55
3652,00;16,49
3649,00;16,42
3646,00;16,25
3643,00;16,38
3640,00;16,47
3637,00;16,49
3634,00;16,46
3631,00;16,38
3628,00;16,28
3625,00;16,28
3622,00;16,30
3619,00;16,26
3616,00;16,21
3613,00;16,14
3610,00;16,15
3607,00;16,14
3604,00;16,17
3601,00;16,20
3598,00;16,16
3595,00;16,09
3592,00;16,06
3589,00;16,06
3586,00;15,96
3583,00;15,97
3580,00;16,00
3577,00;15,99
3574,00;15,98
3571,00;15,98
3568,00;15,92
3565,00;15,76
3562,00;15,79
3559,00;15,84
3556,00;15,85
3553,00;15,84
3550,00;15,80
3547,00;15,79
3544,00;15,72
3541,00;15,71
3538,00;15,74
3535,00;15,71
3532,00;15,69
3529,00;15,67
3526,00;15,63
3523,00;15,60
3520,00;15,58
3517,00;15,59
3514,00;15,60
3511,00;15,57
3508,00;15,53
3505,00;15,54
3502,00;15,50
3499,00;15,48
3496,00;15,49
3493,00;15,46
3490,00;15,45
3487,00;15,44
3484,00;15,42
3481,00;15,40
3478,00;15,38
3475,00;15,36
3472,00;15,36
3469,00;15,37
3466,00;15,34
3463,00;15,31
3460,00;15,29
3457,00;15,27
3454,00;15,26
3451,00;15,25
3448,00;15,24
3445,00;15,20
3442,00;15,18
3439,00;15,19
3436,00;15,20
3433,00;15,19
3430,00;15,17
3427,00;15,15
3424,00;15,13
3421,00;15,11
3418,00;15,09
3415,00;15,09
3412,00;15,10
3409,00;15,08
3406,00;15,07
3403,00;15,07
3400,00;15,07
3397,00;15,04
3394,00;15,03
3391,00;15,02
3388,00;14,99
3385,00;14,97
3382,00;14,97
3379,00;14,97
3376,00;14,96
3373,00;14,95
3370,00;14,97
3367,00;14,95
3364,00;14,92
3361,00;14,91
3358,00;14,89
3355,00;14,88
3352,00;14,89
3349,00;14,88
3346,00;14,86
3343,00;14,86
3340,00;14,85
3337,00;14,84
3334,00;14,80
3331,00;14,79
3328,00;14,79
3325,00;14,78
3322,00;14,75
3319,00;14,74
3316,00;14,72
3313,00;14,72
3310,00;14,72
3307,00;14,71
3304,00;14,69
3301,00;14,65
3298,00;14,64
3295,00;14,63
3292,00;14,61
3289,00;14,57
3286,00;14,54
3283,00;14,53
3280,00;14,51
3277,00;14,50
3274,00;14,49
3271,00;14,48
3268,00;14,44
3265,00;14,41
3262,00;14,39
3259,00;14,38
3256,00;14,38
3253,00;14,35
3250,00;14,33
3247,00;14,34
3244,00;14,30
3241,00;14,28
3238,00;14,27
3235,00;14,28
3232,00;14,27
3229,00;14,23
3226,00;14,21
3223,00;14,20
3220,00;14,20
3217,00;14,19
3214,00;14,18
3211,00;14,17
3208,00;14,16
3205,00;14,16
3202,00;14,15
3199,00;14,14
3196,00;14,13
3193,00;14,13
3190,00;14,13
3187,00;14,13
3184,00;14,12
3181,00;14,12
3178,00;14,12
3175,00;14,12
3172,00;14,12
3169,00;14,12
3166,00;14,12
3163,00;14,12
3160,00;14,13
3157,00;14,13
3154,00;14,16
3151,00;14,16
3148,00;14,14
3145,00;14,14
3142,00;14,14
3139,00;14,16
3136,00;14,14
3133,00;14,13
3130,00;14,14
3127,00;14,13
3124,00;14,13
3121,00;14,15
3118,00;14,15
3115,00;14,14
3112,00;14,12
3109,00;14,12
3106,00;14,10
3103,00;14,09
3100,00;14,09
3097,00;14,07
3094,00;14,06
3091,00;14,07
3088,00;14,07
3085,00;14,06
3082,00;14,05
3079,00;14,05
3076,00;14,02
3073,00;14,01
3070,00;14,01
3067,00;14,01
3064,00;13,99
3061,00;13,97
3058,00;13,98
3055,00;13,97
3052,00;13,98
3049,00;13,97
3046,00;13,97
3043,00;13,98
3040,00;13,98
3037,00;13,97
3034,00;13,98
3031,00;13,96
3028,00;13,95
3025,00;13,96
3022,00;13,97
3019,00;13,98
3016,00;13,99
3013,00;13,99
3010,00;13,97
3007,00;13,96
3004,00;13,97
3001,00;13,97
2998,00;13,98
2995,00;13,98
2992,00;13,99
2989,00;13,97
2986,00;13,97
2983,00;13,99
2980,00;14,00
2977,00;13,99
2974,00;13,98
2971,00;13,97
2968,00;13,95
2965,00;13,94
2962,00;13,92
2959,00;13,89
2956,00;13,88
2953,00;13,87
2950,00;13,86
2947,00;13,88
2944,00;13,89
2941,00;13,87
2938,00;13,86
2935,00;13,86
2932,00;13,85
2929,00;13,83
2926,00;13,78
2923,00;13,73
2920,00;13,67
2917,00;13,64
2914,00;13,63
2911,00;13,62
2908,00;13,63
2905,00;13,65
2902,00;13,67
2899,00;13,70
2896,00;13,73
2893,00;13,74
2890,00;13,75
2887,00;13,76
2884,00;13,77
2881,00;13,78
2878,00;13,79
2875,00;13,80
2872,00;13,80
2869,00;13,79
2866,00;13,79
2863,00;13,79
2860,00;13,79
2857,00;13,77
2854,00;13,75
2851,00;13,73
2848,00;13,73
2845,00;13,72
2842,00;13,74
2839,00;13,77
2836,00;13,79
2833,00;13,80
2830,00;13,82
2827,00;13,83
2824,00;13,85
2821,00;13,86
2818,00;13,87
2815,00;13,88
2812,00;13,89
2809,00;13,90
2806,00;13,90
2803,00;13,91
2800,00;13,92
2797,00;13,92
2794,00;13,93
2791,00;13,94
2788,00;13,94
2785,00;13,94
2782,00;13,94
2779,00;13,95
2776,00;13,96
2773,00;13,96
2770,00;13,96
2767,00;13,96
2764,00;13,97
2761,00;13,97
2758,00;13,98
2755,00;13,98
2752,00;13,98
2749,00;13,99
2746,00;13,99
2743,00;13,99
2740,00;13,99
2737,00;14,00
2734,00;13,99
2731,00;14,00
2728,00;14,01
2725,00;14,01
2722,00;14,01
2719,00;14,01
2716,00;14,01
2713,00;14,01
2710,00;14,01
2707,00;14,01
2704,00;14,01
2701,00;14,01
2698,00;14,02
2695,00;14,02
2692,00;14,02
2689,00;14,02
2686,00;14,02
2683,00;14,02
2680,00;14,03
2677,00;14,03
2674,00;14,02
2671,00;14,02
2668,00;14,02
2665,00;14,02
2662,00;14,02
2659,00;14,03
2656,00;14,03
2653,00;14,03
2650,00;14,03
2647,00;14,03
2644,00;14,03
2641,00;14,03
2638,00;14,04
2635,00;14,03
2632,00;14,03
2629,00;14,03
2626,00;14,03
2623,00;14,03
2620,00;14,02
2617,00;14,02
2614,00;14,03
2611,00;14,02
2608,00;14,02
2605,00;14,01
2602,00;14,01
2599,00;14,01
2596,00;14,00
2593,00;14,00
2590,00;14,00
2587,00;13,99
2584,00;13,99
2581,00;13,99
2578,00;13,99
2575,00;13,99
2572,00;13,98
2569,00;13,97
2566,00;13,97
2563,00;13,97
2560,00;13,97
2557,00;13,97
2554,00;13,96
2551,00;13,96
2548,00;13,95
2545,00;13,94
2542,00;13,94
2539,00;13,94
2536,00;13,93
2533,00;13,93
2530,00;13,92
2527,00;13,92
2524,00;13,91
2521,00;13,91
2518,00;13,90
2515,00;13,90
2512,00;13,89
2509,00;13,89
2506,00;13,88
2503,00;13,87
2500,00;13,87
2497,00;13,87
2494,00;13,86
2491,00;13,86
2488,00;13,85
2485,00;13,84
2482,00;13,84
2479,00;13,84
2476,00;13,84
2473,00;13,83
2470,00;13,82
2467,00;13,82
2464,00;13,82
2461,00;13,82
2458,00;13,81
2455,00;13,81
2452,00;13,81
2449,00;13,80
2446,00;13,79
2443,00;13,79
2440,00;13,79
2437,00;13,79
2434,00;13,79
2431,00;13,78
2428,00;13,77
2425,00;13,76
2422,00;13,76
2419,00;13,76
2416,00;13,75
2413,00;13,75
2410,00;13,74
2407,00;13,74
2404,00;13,73
2401,00;13,72
2398,00;13,71
2395,00;13,71
2392,00;13,71
2389,00;13,71
2386,00;13,72
2383,00;13,77
2380,00;13,82
2377,00;13,81
2374,00;13,77
2371,00;13,74
2368,00;13,74
2365,00;13,72
2362,00;13,67
2359,00;13,63
2356,00;13,58
2353,00;13,66
2350,00;13,65
2347,00;13,81
2344,00;13,77
2341,00;13,65
2338,00;13,58
2335,00;13,57
2332,00;13,55
2329,00;13,51
2326,00;13,54
2323,00;13,57
2320,00;13,52
2317,00;13,52
2314,00;13,55
2311,00;13,55
2308,00;13,56
2305,00;13,56
2302,00;13,56
2299,00;13,57
2296,00;13,57
2293,00;13,57
2290,00;13,58
2287,00;13,57
2284,00;13,57
2281,00;13,58
2278,00;13,58
2275,00;13,59
2272,00;13,59
2269,00;13,58
2266,00;13,56
2263,00;13,55
2260,00;13,55
2257,00;13,54
2254,00;13,53
2251,00;13,52
2248,00;13,52
2245,00;13,53
2242,00;13,53
2239,00;13,51
2236,00;13,51
2233,00;13,51
2230,00;13,51
2227,00;13,50
2224,00;13,50
2221,00;13,51
2218,00;13,50
2215,00;13,50
2212,00;13,50
2209,00;13,48
2206,00;13,47
2203,00;13,46
2200,00;13,46
2197,00;13,46
2194,00;13,46
2191,00;13,45
2188,00;13,45
2185,00;13,46
2182,00;13,46
2179,00;13,43
2176,00;13,43
2173,00;13,44
2170,00;13,45
2167,00;13,48
2164,00;13,48
2161,00;13,50
2158,00;13,46
2155,00;13,38
2152,00;13,38
2149,00;13,38
2146,00;13,37
2143,00;13,36
2140,00;13,35
2137,00;13,35
2134,00;13,32
2131,00;13,30
2128,00;13,30
2125,00;13,30
2122,00;13,30
2119,00;13,30
2116,00;13,29
2113,00;13,30
2110,00;13,29
2107,00;13,29
2104,00;13,28
2101,00;13,29
2098,00;13,28
2095,00;13,27
2092,00;13,26
2089,00;13,27
2086,00;13,28
2083,00;13,29
2080,00;13,28
2077,00;13,28
2074,00;13,29
2071,00;13,27
2068,00;13,26
2065,00;13,26
2062,00;13,25
2059,00;13,27
2056,00;13,28
2053,00;13,30
2050,00;13,33
2047,00;13,30
2044,00;13,26
2041,00;13,28
2038,00;13,31
2035,00;13,34
2032,00;13,31
2029,00;13,30
2026,00;13,29
2023,00;13,27
2020,00;13,28
2017,00;13,27
2014,00;13,27
2011,00;13,27
2008,00;13,23
2005,00;13,19
2002,00;13,17
1999,00;13,18
1996,00;13,18
1993,00;13,19
1990,00;13,19
1987,00;13,20
1984,00;13,20
1981,00;13,22
1978,00;13,27
1975,00;13,24
1972,00;13,22
1969,00;13,18
1966,00;13,16
1963,00;13,14
1960,00;13,13
1957,00;13,12
1954,00;13,10
1951,00;13,09
1948,00;13,08
1945,00;13,08
1942,00;13,08
1939,00;13,05
1936,00;13,06
1933,00;13,05
1930,00;13,05
1927,00;13,04
1924,00;13,03
1921,00;13,03
1918,00;13,02
1915,00;13,02
1912,00;13,01
1909,00;12,99
1906,00;12,99
1903,00;12,99
1900,00;12,99
1897,00;12,99
1894,00;12,99
1891,00;12,98
1888,00;12,97
1885,00;12,96
1882,00;12,96
1879,00;12,95
1876,00;12,95
1873,00;12,96
1870,00;12,95
1867,00;12,91
1864,00;12,91
1861,00;12,93
1858,00;12,92
1855,00;12,91
1852,00;12,91
1849,00;12,91
1846,00;12,88
1843,00;12,89
1840,00;12,87
1837,00;12,88
1834,00;12,87
1831,00;12,86
1828,00;12,85
1825,00;12,83
1822,00;12,84
1819,00;12,84
1816,00;12,82
1813,00;12,83
1810,00;12,80
1807,00;12,79
1804,00;12,80
1801,00;12,79
1798,00;12,77
1795,00;12,75
1792,00;12,76
1789,00;12,74
1786,00;12,75
1783,00;12,75
1780,00;12,72
1777,00;12,70
1774,00;12,68
1771,00;12,68
1768,00;12,64
1765,00;12,67
1762,00;12,64
1759,00;12,63
1756,00;12,61
1753,00;12,61
1750,00;12,59
1747,00;12,49
1744,00;12,49
1741,00;12,47
1738,00;12,47
1735,00;12,45
1732,00;12,46
1729,00;12,35
1726,00;12,37
1723,00;12,35
1720,00;12,31
1717,00;12,31
1714,00;12,21
1711,00;12,20
1708,00;12,20
1705,00;12,14
1702,00;12,10
1699,00;12,17
1696,00;12,05
1693,00;12,12
1690,00;12,07
1687,00;12,02
1684,00;12,05
1681,00;11,97
1678,00;11,96
1675,00;11,98
1672,00;11,94
1669,00;11,87
1666,00;11,88
1663,00;11,87
1660,00;11,84
1657,00;11,82
1654,00;11,81
1651,00;11,82
1648,00;11,69
1645,00;11,65
1642,00;11,67
1639,00;11,66
1636,00;11,62
1633,00;11,60
1630,00;11,60
1627,00;11,57
1624,00;11,56
1621,00;11,54
1618,00;11,55
1615,00;11,57
1612,00;11,55
1609,00;11,56
1606,00;11,56
1603,00;11,59
1600,00;11,60
1597,00;11,62
1594,00;11,62
1591,00;11,65
1588,00;11,66
1585,00;11,67
1582,00;11,69
1579,00;11,70
1576,00;11,73
1573,00;11,72
1570,00;11,73
1567,00;11,73
1564,00;11,74
1561,00;11,76
1558,00;11,73
1555,00;11,73
1552,00;11,79
1549,00;11,77
1546,00;11,81
1543,00;11,79
1540,00;11,76
1537,00;11,81
1534,00;11,81
1531,00;11,81
1528,00;11,84
1525,00;11,83
1522,00;11,82
1519,00;11,82
1516,00;11,78
1513,00;11,83
1510,00;11,86
1507,00;11,79
1504,00;11,83
1501,00;11,85
1498,00;11,85
1495,00;11,84
1492,00;11,84
1489,00;11,77
1486,00;11,73
1483,00;11,75
1480,00;11,72
1477,00;11,67
1474,00;11,59
1471,00;11,44
1468,00;11,39
1465,00;11,30
1462,00;11,20
1459,00;11,13
1456,00;10,98
1453,00;10,92
1450,00;10,87
1447,00;10,77
1444,00;10,71
1441,00;10,66
1438,00;10,61
1435,00;10,52
1432,00;10,48
1429,00;10,44
1426,00;10,45
1423,00;10,43
1420,00;10,47
1417,00;10,48
1414,00;10,52
1411,00;10,59
1408,00;10,66
1405,00;10,71
1402,00;10,77
1399,00;10,84
1396,00;10,86
1393,00;10,91
1390,00;10,98
1387,00;11,02
1384,00;11,04
1381,00;11,06
1378,00;11,07
1375,00;11,08
1372,00;11,09
1369,00;11,13
1366,00;11,15
1363,00;11,16
1360,00;11,14
1357,00;11,18
1354,00;11,18
1351,00;11,19
1348,00;11,20
1345,00;11,21
1342,00;11,22
1339,00;11,19
1336,00;11,19
1333,00;11,22
1330,00;11,22
1327,00;11,23
1324,00;11,23
1321,00;11,22
1318,00;11,20
1315,00;11,20
1312,00;11,20
1309,00;11,21
1306,00;11,21
1303,00;11,21
1300,00;11,21
1297,00;11,21
1294,00;11,20
1291,00;11,21
1288,00;11,20
1285,00;11,20
1282,00;11,20
1279,00;11,19
1276,00;11,18
1273,00;11,16
1270,00;11,12
1267,00;11,08
1264,00;11,03
1261,00;10,98
1258,00;10,95
1255,00;10,93
1252,00;10,90
1249,00;10,85
1246,00;10,78
1243,00;10,70
1240,00;10,61
1237,00;10,51
1234,00;10,39
1231,00;10,27
1228,00;10,16
1225,00;10,03
1222,00;9,92
1219,00;9,81
1216,00;9,71
1213,00;9,61
1210,00;9,52
1207,00;9,44
1204,00;9,36
1201,00;9,28
1198,00;9,20
1195,00;9,12
1192,00;9,05
1189,00;8,99
1186,00;8,93
1183,00;8,87
1180,00;8,82
1177,00;8,77
1174,00;8,72
1171,00;8,67
1168,00;8,63
1165,00;8,60
1162,00;8,57
1159,00;8,55
1156,00;8,53
1153,00;8,51
1150,00;8,48
1147,00;8,43
1144,00;8,39
1141,00;8,34
1138,00;8,28
1135,00;8,23
1132,00;8,18
1129,00;8,12
1126,00;8,06
1123,00;8,02
1120,00;7,98
1117,00;7,96
1114,00;7,94
1111,00;7,93
1108,00;7,94
1105,00;7,97
1102,00;7,99
1099,00;8,01
1096,00;8,05
1093,00;8,08
1090,00;8,10
1087,00;8,12
1084,00;8,15
1081,00;8,18
1078,00;8,19
1075,00;8,21
1072,00;8,22
1069,00;8,22
1066,00;8,22
1063,00;8,21
1060,00;8,21
1057,00;8,20
1054,00;8,19
1051,00;8,18
1048,00;8,17
1045,00;8,17
1042,00;8,16
1039,00;8,15
1036,00;8,14
1033,00;8,16
1030,00;8,20
1027,00;8,27
1024,00;8,36
1021,00;8,46
1018,00;8,54
1015,00;8,63
1012,00;8,70
1009,00;8,76
1006,00;8,78
1003,00;8,79
1000,00;8,79
997,00;8,80
994,00;8,81
991,00;8,81
988,00;8,79
985,00;8,76
982,00;8,73
979,00;8,71
976,00;8,70
973,00;8,67
970,00;8,65
967,00;8,61
964,00;8,52
961,00;8,38
958,00;8,26
955,00;8,21
952,00;8,17
949,00;8,11
946,00;8,07
943,00;8,06
940,00;8,07
937,00;8,10
934,00;8,14
931,00;8,18
928,00;8,20
925,00;8,19
922,00;8,15
919,00;8,10
916,00;8,04
913,00;7,98
910,00;7,94
907,00;7,92
904,00;7,93
901,00;7,95
898,00;7,98
895,00;8,01
892,00;8,04
889,00;8,07
886,00;8,09
883,00;8,10
880,00;8,12
877,00;8,13
874,00;8,15
871,00;8,17
868,00;8,19
865,00;8,22
862,00;8,24
859,00;8,27
856,00;8,29
853,00;8,33
850,00;8,35
847,00;8,37
844,00;8,39
841,00;8,41
838,00;8,42
835,00;8,42
832,00;8,41
829,00;8,40
826,00;8,39
823,00;8,35
820,00;8,31
817,00;8,27
814,00;8,23
811,00;8,20
808,00;8,17
805,00;8,14
802,00;8,11
799,00;8,11
796,00;8,11
793,00;8,10
790,00;8,09
787,00;8,08
784,00;8,04
781,00;7,98
778,00;7,95
775,00;7,93
772,00;7,93
769,00;7,90
766,00;7,87
763,00;7,84
760,00;7,83
757,00;7,80
754,00;7,80
751,00;7,80
748,00;7,80
745,00;7,84
742,00;7,85
739,00;7,86
736,00;7,88
733,00;7,91
730,00;7,92
727,00;7,91
724,00;7,90
721,00;7,90
718,00;7,92
715,00;7,93
712,00;7,95
709,00;7,95
706,00;7,95
703,00;7,96
700,00;7,99
697,00;8,03
694,00;8,05
691,00;8,06
688,00;8,06
685,00;8,07
682,00;8,06
679,00;8,03
676,00;7,99
673,00;7,97
670,00;7,98
667,00;7,74
664,00;7,89
661,00;7,91
658,00;7,89
655,00;7,90
652,00;7,89
649,00;7,89
646,00;7,90
643,00;7,90
640,00;7,90
637,00;7,88
634,00;7,80
631,00;7,72
628,00;7,67
625,00;7,65
622,00;7,57
619,00;7,51
616,00;7,49
613,00;7,41
610,00;7,37
607,00;7,32
604,00;7,29
601,00;7,28
598,00;7,31
595,00;7,29
592,00;7,27
589,00;7,37
586,00;7,38
583,00;7,39
580,00;7,48
577,00;7,46
574,00;7,44
571,00;7,50
568,00;7,54
565,00;7,58
562,00;7,66
559,00;7,76
556,00;7,79
553,00;7,83
550,00;7,81
547,00;7,83
544,00;7,76
541,00;7,92
538,00;8,09
535,00;8,06
532,00;7,97
529,00;8,07
526,00;7,99
523,00;7,85
520,00;8,09
517,00;8,01
514,00;7,97
511,00;8,08
508,00;8,50
505,00;8,38
502,00;7,56
500,00;7,12