File: FTIR/LNB_28-10-2024/SiO2-PDA-PDA.csv
Criado como novo conjunto de dados;Amostra 022 por Analyst data segunda-feira, outubro 28 2024
cm-1;%T
4000,00;101,14
3997,00;101,15
3994,00;101,15
3991,00;101,15
3988,00;101,15
3985,00;101,15
3982,00;101,15
3979,00;101,16
3976,00;101,16
3973,00;101,16
3970,00;101,17
3967,00;101,16
3964,00;101,16
3961,00;101,17
3958,00;101,17
3955,00;101,17
3952,00;101,17
3949,00;101,18
3946,00;101,19
3943,00;101,19
3940,00;101,19
3937,00;101,18
3934,00;101,18
3931,00;101,20
3928,00;101,20
3925,00;101,20
3922,00;101,20
3919,00;101,21
3916,00;101,21
3913,00;101,21
3910,00;101,19
3907,00;101,20
3904,00;101,23
3901,00;101,26
3898,00;101,27
3895,00;101,23
3892,00;101,24
3889,00;101,22
3886,00;101,24
3883,00;101,24
3880,00;101,29
3877,00;101,25
3874,00;101,24
3871,00;101,27
3868,00;101,25
3865,00;101,28
3862,00;101,28
3859,00;101,26
3856,00;101,27
3853,00;101,22
3850,00;101,30
3847,00;101,27
3844,00;101,26
3841,00;101,27
3838,00;101,29
3835,00;101,29
3832,00;101,29
3829,00;101,27
3826,00;101,27
3823,00;101,28
3820,00;101,28
3817,00;101,31
3814,00;101,27
3811,00;101,27
3808,00;101,27
3805,00;101,24
3802,00;101,30
3799,00;101,29
3796,00;101,32
3793,00;101,28
3790,00;101,25
3787,00;101,25
3784,00;101,27
3781,00;101,28
3778,00;101,28
3775,00;101,28
3772,00;101,27
3769,00;101,28
3766,00;101,30
3763,00;101,28
3760,00;101,29
3757,00;101,31
3754,00;101,29
3751,00;101,27
3748,00;101,31
3745,00;101,37
3742,00;101,31
3739,00;101,32
3736,00;101,32
3733,00;101,39
3730,00;101,32
3727,00;101,30
3724,00;101,31
3721,00;101,32
3718,00;101,30
3715,00;101,28
3712,00;101,28
3709,00;101,32
3706,00;101,27
3703,00;101,25
3700,00;101,23
3697,00;101,20
3694,00;101,17
3691,00;101,16
3688,00;101,14
3685,00;101,10
3682,00;101,03
3679,00;100,97
3676,00;100,96
3673,00;100,89
3670,00;100,83
3667,00;100,75
3664,00;100,65
3661,00;100,56
3658,00;100,50
3655,00;100,44
3652,00;100,42
3649,00;100,38
3646,00;100,37
3643,00;100,25
3640,00;100,17
3637,00;100,11
3634,00;100,08
3631,00;100,07
3628,00;100,04
3625,00;99,99
3622,00;99,93
3619,00;99,92
3616,00;99,89
3613,00;99,87
3610,00;99,83
3607,00;99,79
3604,00;99,74
3601,00;99,69
3598,00;99,66
3595,00;99,66
3592,00;99,62
3589,00;99,60
3586,00;99,58
3583,00;99,52
3580,00;99,48
3577,00;99,45
3574,00;99,41
3571,00;99,36
3568,00;99,35
3565,00;99,35
3562,00;99,27
3559,00;99,20
3556,00;99,15
3553,00;99,10
3550,00;99,05
3547,00;98,99
3544,00;98,94
3541,00;98,89
3538,00;98,84
3535,00;98,78
3532,00;98,74
3529,00;98,70
3526,00;98,65
3523,00;98,59
3520,00;98,54
3517,00;98,48
3514,00;98,41
3511,00;98,37
3508,00;98,34
3505,00;98,28
3502,00;98,22
3499,00;98,18
3496,00;98,12
3493,00;98,08
3490,00;98,03
3487,00;97,98
3484,00;97,95
3481,00;97,91
3478,00;97,86
3475,00;97,82
3472,00;97,77
3469,00;97,71
3466,00;97,67
3463,00;97,65
3460,00;97,60
3457,00;97,57
3454,00;97,54
3451,00;97,49
3448,00;97,45
3445,00;97,42
3442,00;97,38
3439,00;97,32
3436,00;97,26
3433,00;97,23
3430,00;97,20
3427,00;97,17
3424,00;97,15
3421,00;97,12
3418,00;97,09
3415,00;97,06
3412,00;97,01
3409,00;96,98
3406,00;96,96
3403,00;96,93
3400,00;96,89
3397,00;96,88
3394,00;96,86
3391,00;96,84
3388,00;96,83
3385,00;96,83
3382,00;96,81
3379,00;96,79
3376,00;96,77
3373,00;96,76
3370,00;96,74
3367,00;96,73
3364,00;96,74
3361,00;96,74
3358,00;96,73
3355,00;96,73
3352,00;96,73
3349,00;96,72
3346,00;96,73
3343,00;96,73
3340,00;96,72
3337,00;96,72
3334,00;96,74
3331,00;96,74
3328,00;96,74
3325,00;96,74
3322,00;96,75
3319,00;96,75
3316,00;96,75
3313,00;96,76
3310,00;96,77
3307,00;96,77
3304,00;96,77
3301,00;96,78
3298,00;96,78
3295,00;96,78
3292,00;96,78
3289,00;96,78
3286,00;96,78
3283,00;96,79
3280,00;96,79
3277,00;96,79
3274,00;96,80
3271,00;96,81
3268,00;96,80
3265,00;96,80
3262,00;96,80
3259,00;96,81
3256,00;96,83
3253,00;96,83
3250,00;96,84
3247,00;96,85
3244,00;96,85
3241,00;96,86
3238,00;96,87
3235,00;96,90
3232,00;96,91
3229,00;96,91
3226,00;96,92
3223,00;96,93
3220,00;96,94
3217,00;96,96
3214,00;96,98
3211,00;96,99
3208,00;97,01
3205,00;97,03
3202,00;97,05
3199,00;97,06
3196,00;97,09
3193,00;97,11
3190,00;97,13
3187,00;97,15
3184,00;97,17
3181,00;97,20
3178,00;97,22
3175,00;97,24
3172,00;97,26
3169,00;97,28
3166,00;97,30
3163,00;97,33
3160,00;97,35
3157,00;97,38
3154,00;97,42
3151,00;97,43
3148,00;97,45
3145,00;97,47
3142,00;97,50
3139,00;97,53
3136,00;97,55
3133,00;97,57
3130,00;97,61
3127,00;97,62
3124,00;97,65
3121,00;97,70
3118,00;97,73
3115,00;97,75
3112,00;97,77
3109,00;97,80
3106,00;97,81
3103,00;97,84
3100,00;97,87
3097,00;97,90
3094,00;97,93
3091,00;97,97
3088,00;97,99
3085,00;98,02
3082,00;98,06
3079,00;98,08
3076,00;98,10
3073,00;98,11
3070,00;98,14
3067,00;98,18
3064,00;98,20
3061,00;98,22
3058,00;98,25
3055,00;98,28
3052,00;98,31
3049,00;98,34
3046,00;98,38
3043,00;98,41
3040,00;98,43
3037,00;98,45
3034,00;98,50
3031,00;98,52
3028,00;98,54
3025,00;98,57
3022,00;98,60
3019,00;98,63
3016,00;98,67
3013,00;98,71
3010,00;98,73
3007,00;98,73
3004,00;98,76
3001,00;98,79
2998,00;98,82
2995,00;98,84
2992,00;98,87
2989,00;98,88
2986,00;98,89
2983,00;98,92
2980,00;98,95
2977,00;98,96
2974,00;98,99
2971,00;99,01
2968,00;99,02
2965,00;99,06
2962,00;99,08
2959,00;99,11
2956,00;99,13
2953,00;99,16
2950,00;99,18
2947,00;99,20
2944,00;99,22
2941,00;99,24
2938,00;99,26
2935,00;99,30
2932,00;99,34
2929,00;99,38
2926,00;99,41
2923,00;99,44
2920,00;99,46
2917,00;99,48
2914,00;99,50
2911,00;99,51
2908,00;99,51
2905,00;99,53
2902,00;99,54
2899,00;99,56
2896,00;99,58
2893,00;99,59
2890,00;99,61
2887,00;99,62
2884,00;99,64
2881,00;99,66
2878,00;99,68
2875,00;99,71
2872,00;99,74
2869,00;99,75
2866,00;99,77
2863,00;99,79
2860,00;99,82
2857,00;99,85
2854,00;99,87
2851,00;99,88
2848,00;99,90
2845,00;99,90
2842,00;99,91
2839,00;99,93
2836,00;99,94
2833,00;99,95
2830,00;99,96
2827,00;99,98
2824,00;99,99
2821,00;100,00
2818,00;100,02
2815,00;100,03
2812,00;100,05
2809,00;100,07
2806,00;100,08
2803,00;100,09
2800,00;100,10
2797,00;100,11
2794,00;100,12
2791,00;100,14
2788,00;100,15
2785,00;100,15
2782,00;100,17
2779,00;100,17
2776,00;100,19
2773,00;100,20
2770,00;100,20
2767,00;100,21
2764,00;100,22
2761,00;100,23
2758,00;100,24
2755,00;100,25
2752,00;100,26
2749,00;100,27
2746,00;100,28
2743,00;100,28
2740,00;100,29
2737,00;100,30
2734,00;100,30
2731,00;100,31
2728,00;100,32
2725,00;100,34
2722,00;100,34
2719,00;100,35
2716,00;100,36
2713,00;100,37
2710,00;100,38
2707,00;100,39
2704,00;100,40
2701,00;100,41
2698,00;100,42
2695,00;100,43
2692,00;100,44
2689,00;100,44
2686,00;100,45
2683,00;100,47
2680,00;100,48
2677,00;100,48
2674,00;100,49
2671,00;100,50
2668,00;100,50
2665,00;100,49
2662,00;100,46
2659,00;100,44
2656,00;100,43
2653,00;100,43
2650,00;100,43
2647,00;100,44
2644,00;100,45
2641,00;100,47
2638,00;100,48
2635,00;100,49
2632,00;100,51
2629,00;100,53
2626,00;100,54
2623,00;100,56
2620,00;100,57
2617,00;100,58
2614,00;100,60
2611,00;100,62
2608,00;100,62
2605,00;100,64
2602,00;100,66
2599,00;100,67
2596,00;100,68
2593,00;100,69
2590,00;100,71
2587,00;100,73
2584,00;100,74
2581,00;100,75
2578,00;100,76
2575,00;100,78
2572,00;100,79
2569,00;100,79
2566,00;100,81
2563,00;100,82
2560,00;100,84
2557,00;100,85
2554,00;100,86
2551,00;100,88
2548,00;100,89
2545,00;100,90
2542,00;100,91
2539,00;100,93
2536,00;100,93
2533,00;100,94
2530,00;100,95
2527,00;100,97
2524,00;100,97
2521,00;100,98
2518,00;100,99
2515,00;101,00
2512,00;101,00
2509,00;101,01
2506,00;101,01
2503,00;101,02
2500,00;101,02
2497,00;101,02
2494,00;101,02
2491,00;101,03
2488,00;101,05
2485,00;101,06
2482,00;101,07
2479,00;101,07
2476,00;101,07
2473,00;101,08
2470,00;101,09
2467,00;101,09
2464,00;101,09
2461,00;101,09
2458,00;101,08
2455,00;101,08
2452,00;101,08
2449,00;101,10
2446,00;101,12
2443,00;101,13
2440,00;101,16
2437,00;101,17
2434,00;101,18
2431,00;101,20
2428,00;101,20
2425,00;101,22
2422,00;101,23
2419,00;101,24
2416,00;101,24
2413,00;101,25
2410,00;101,25
2407,00;101,28
2404,00;101,30
2401,00;101,30
2398,00;101,31
2395,00;101,32
2392,00;101,32
2389,00;101,33
2386,00;101,34
2383,00;101,37
2380,00;101,40
2377,00;101,40
2374,00;101,39
2371,00;101,38
2368,00;101,39
2365,00;101,39
2362,00;101,38
2359,00;101,39
2356,00;101,43
2353,00;101,45
2350,00;101,36
2347,00;101,35
2344,00;101,28
2341,00;101,30
2338,00;101,31
2335,00;101,32
2332,00;101,35
2329,00;101,31
2326,00;101,14
2323,00;100,96
2320,00;101,09
2317,00;101,17
2314,00;101,21
2311,00;101,23
2308,00;101,23
2305,00;101,23
2302,00;101,23
2299,00;101,21
2296,00;101,19
2293,00;101,17
2290,00;101,12
2287,00;101,09
2284,00;101,12
2281,00;101,20
2278,00;101,25
2275,00;101,30
2272,00;101,33
2269,00;101,35
2266,00;101,40
2263,00;101,45
2260,00;101,44
2257,00;101,44
2254,00;101,52
2251,00;101,55
2248,00;101,55
2245,00;101,55
2242,00;101,57
2239,00;101,58
2236,00;101,59
2233,00;101,62
2230,00;101,67
2227,00;101,70
2224,00;101,74
2221,00;101,78
2218,00;101,82
2215,00;101,86
2212,00;101,89
2209,00;101,94
2206,00;101,98
2203,00;101,98
2200,00;102,00
2197,00;102,04
2194,00;102,06
2191,00;102,07
2188,00;102,08
2185,00;102,13
2182,00;102,31
2179,00;102,38
2176,00;102,40
2173,00;102,48
2170,00;102,32
2167,00;102,21
2164,00;102,24
2161,00;102,34
2158,00;103,32
2155,00;103,40
2152,00;103,05
2149,00;102,86
2146,00;102,82
2143,00;102,73
2140,00;102,66
2137,00;102,64
2134,00;102,71
2131,00;102,60
2128,00;102,42
2125,00;102,28
2122,00;102,18
2119,00;102,10
2116,00;102,00
2113,00;101,94
2110,00;101,95
2107,00;101,97
2104,00;101,98
2101,00;101,98
2098,00;101,98
2095,00;102,08
2092,00;102,08
2089,00;101,99
2086,00;101,93
2083,00;101,90
2080,00;101,88
2077,00;101,90
2074,00;101,91
2071,00;101,90
2068,00;101,91
2065,00;101,93
2062,00;101,94
2059,00;101,91
2056,00;101,85
2053,00;101,77
2050,00;101,54
2047,00;101,84
2044,00;101,90
2041,00;101,89
2038,00;101,85
2035,00;101,88
2032,00;102,03
2029,00;102,08
2026,00;102,06
2023,00;102,04
2020,00;102,03
2017,00;102,01
2014,00;101,95
2011,00;101,87
2008,00;101,96
2005,00;102,08
2002,00;101,95
1999,00;101,84
1996,00;101,76
1993,00;101,70
1990,00;101,68
1987,00;101,65
1984,00;101,55
1981,00;101,39
1978,00;101,58
1975,00;102,00
1972,00;102,04
1969,00;102,06
1966,00;102,06
1963,00;102,04
1960,00;102,09
1957,00;102,11
1954,00;102,00
1951,00;101,96
1948,00;101,95
1945,00;101,97
1942,00;101,99
1939,00;101,93
1936,00;101,91
1933,00;101,91
1930,00;101,88
1927,00;101,85
1924,00;101,85
1921,00;101,82
1918,00;101,77
1915,00;101,74
1912,00;101,72
1909,00;101,71
1906,00;101,68
1903,00;101,67
1900,00;101,64
1897,00;101,62
1894,00;101,60
1891,00;101,58
1888,00;101,55
1885,00;101,52
1882,00;101,51
1879,00;101,49
1876,00;101,48
1873,00;101,47
1870,00;101,48
1867,00;101,48
1864,00;101,45
1861,00;101,44
1858,00;101,44
1855,00;101,44
1852,00;101,44
1849,00;101,45
1846,00;101,48
1843,00;101,48
1840,00;101,45
1837,00;101,45
1834,00;101,45
1831,00;101,45
1828,00;101,45
1825,00;101,43
1822,00;101,40
1819,00;101,42
1816,00;101,46
1813,00;101,40
1810,00;101,36
1807,00;101,33
1804,00;101,30
1801,00;101,28
1798,00;101,26
1795,00;101,23
1792,00;101,20
1789,00;101,18
1786,00;101,14
1783,00;101,10
1780,00;101,08
1777,00;101,06
1774,00;101,02
1771,00;100,96
1768,00;100,92
1765,00;100,85
1762,00;100,79
1759,00;100,72
1756,00;100,64
1753,00;100,57
1750,00;100,48
1747,00;100,41
1744,00;100,33
1741,00;100,25
1738,00;100,16
1735,00;100,08
1732,00;99,99
1729,00;99,94
1726,00;99,84
1723,00;99,77
1720,00;99,73
1717,00;99,64
1714,00;99,58
1711,00;99,50
1708,00;99,44
1705,00;99,38
1702,00;99,33
1699,00;99,17
1696,00;99,08
1693,00;98,94
1690,00;98,82
1687,00;98,70
1684,00;98,50
1681,00;98,35
1678,00;98,20
1675,00;97,99
1672,00;97,80
1669,00;97,57
1666,00;97,34
1663,00;97,09
1660,00;96,82
1657,00;96,60
1654,00;96,35
1651,00;95,91
1648,00;95,74
1645,00;95,37
1642,00;95,09
1639,00;94,82
1636,00;94,55
1633,00;94,27
1630,00;94,10
1627,00;93,93
1624,00;93,81
1621,00;93,70
1618,00;93,65
1615,00;93,59
1612,00;93,61
1609,00;93,63
1606,00;93,66
1603,00;93,70
1600,00;93,75
1597,00;93,82
1594,00;93,89
1591,00;93,96
1588,00;94,04
1585,00;94,12
1582,00;94,20
1579,00;94,27
1576,00;94,34
1573,00;94,45
1570,00;94,52
1567,00;94,60
1564,00;94,67
1561,00;94,74
1558,00;94,81
1555,00;94,82
1552,00;94,83
1549,00;94,85
1546,00;94,86
1543,00;94,86
1540,00;94,82
1537,00;94,76
1534,00;94,69
1531,00;94,57
1528,00;94,46
1525,00;94,32
1522,00;94,19
1519,00;94,06
1516,00;93,98
1513,00;93,88
1510,00;93,80
1507,00;93,79
1504,00;93,86
1501,00;93,98
1498,00;94,13
1495,00;94,36
1492,00;94,57
1489,00;94,85
1486,00;95,09
1483,00;95,24
1480,00;95,37
1477,00;95,46
1474,00;95,53
1471,00;95,59
1468,00;95,62
1465,00;95,64
1462,00;95,67
1459,00;95,68
1456,00;95,68
1453,00;95,66
1450,00;95,61
1447,00;95,55
1444,00;95,53
1441,00;95,54
1438,00;95,59
1435,00;95,69
1432,00;95,80
1429,00;95,92
1426,00;96,02
1423,00;96,10
1420,00;96,15
1417,00;96,18
1414,00;96,17
1411,00;96,15
1408,00;96,12
1405,00;96,07
1402,00;96,03
1399,00;95,98
1396,00;95,93
1393,00;95,87
1390,00;95,81
1387,00;95,73
1384,00;95,68
1381,00;95,62
1378,00;95,57
1375,00;95,52
1372,00;95,46
1369,00;95,40
1366,00;95,33
1363,00;95,27
1360,00;95,20
1357,00;95,12
1354,00;95,05
1351,00;94,98
1348,00;94,93
1345,00;94,88
1342,00;94,85
1339,00;94,84
1336,00;94,85
1333,00;94,86
1330,00;94,89
1327,00;94,89
1324,00;94,87
1321,00;94,82
1318,00;94,74
1315,00;94,62
1312,00;94,47
1309,00;94,30
1306,00;94,13
1303,00;93,98
1300,00;93,83
1297,00;93,68
1294,00;93,53
1291,00;93,37
1288,00;93,23
1285,00;93,11
1282,00;93,01
1279,00;92,91
1276,00;92,80
1273,00;92,66
1270,00;92,49
1267,00;92,30
1264,00;92,07
1261,00;91,74
1258,00;91,28
1255,00;90,68
1252,00;89,93
1249,00;89,08
1246,00;88,16
1243,00;87,23
1240,00;86,31
1237,00;85,42
1234,00;84,58
1231,00;83,76
1228,00;83,00
1225,00;82,28
1222,00;81,61
1219,00;80,96
1216,00;80,33
1213,00;79,72
1210,00;79,12
1207,00;78,53
1204,00;77,97
1201,00;77,42
1198,00;76,87
1195,00;76,32
1192,00;75,79
1189,00;75,27
1186,00;74,76
1183,00;74,24
1180,00;73,74
1177,00;73,25
1174,00;72,74
1171,00;72,25
1168,00;71,76
1165,00;71,29
1162,00;70,83
1159,00;70,40
1156,00;69,99
1153,00;69,59
1150,00;69,18
1147,00;68,78
1144,00;68,38
1141,00;67,94
1138,00;67,45
1135,00;66,90
1132,00;66,27
1129,00;65,52
1126,00;64,58
1123,00;63,38
1120,00;61,82
1117,00;59,74
1114,00;57,00
1111,00;53,55
1108,00;49,62
1105,00;45,62
1102,00;41,94
1099,00;38,82
1096,00;36,35
1093,00;34,48
1090,00;33,09
1087,00;32,09
1084,00;31,44
1081,00;31,08
1078,00;30,92
1075,00;30,98
1072,00;31,27
1069,00;31,79
1066,00;32,51
1063,00;33,47
1060,00;34,73
1057,00;36,31
1054,00;38,21
1051,00;40,47
1048,00;43,16
1045,00;46,26
1042,00;49,72
1039,00;53,49
1036,00;57,49
1033,00;61,59
1030,00;65,66
1027,00;69,54
1024,00;73,13
1021,00;76,33
1018,00;79,10
1015,00;81,44
1012,00;83,38
1009,00;84,96
1006,00;86,21
1003,00;87,20
1000,00;87,94
997,00;88,44
994,00;88,69
991,00;88,70
988,00;88,46
985,00;87,96
982,00;87,25
979,00;86,41
976,00;85,55
973,00;84,70
970,00;83,91
967,00;83,22
964,00;82,64
961,00;82,16
958,00;81,80
955,00;81,55
952,00;81,41
949,00;81,38
946,00;81,46
943,00;81,64
940,00;81,91
937,00;82,27
934,00;82,70
931,00;83,21
928,00;83,78
925,00;84,38
922,00;85,01
919,00;85,65
916,00;86,27
913,00;86,85
910,00;87,38
907,00;87,85
904,00;88,26
901,00;88,62
898,00;88,96
895,00;89,25
892,00;89,51
889,00;89,74
886,00;89,93
883,00;90,12
880,00;90,29
877,00;90,42
874,00;90,53
871,00;90,61
868,00;90,67
865,00;90,72
862,00;90,74
859,00;90,74
856,00;90,70
853,00;90,62
850,00;90,47
847,00;90,24
844,00;89,89
841,00;89,40
838,00;88,79
835,00;88,06
832,00;87,26
829,00;86,41
826,00;85,57
823,00;84,71
820,00;83,90
817,00;83,13
814,00;82,41
811,00;81,77
808,00;81,24
805,00;80,80
802,00;80,46
799,00;80,21
796,00;80,10
793,00;80,16
790,00;80,36
787,00;80,71
784,00;81,26
781,00;82,03
778,00;82,93
775,00;83,88
772,00;84,72
769,00;85,30
766,00;85,64
763,00;85,79
760,00;85,88
757,00;85,91
754,00;85,93
751,00;85,94
748,00;85,98
745,00;86,00
742,00;86,03
739,00;86,06
736,00;86,08
733,00;86,11
730,00;86,13
727,00;86,12
724,00;86,13
721,00;86,16
718,00;86,17
715,00;86,19
712,00;86,20
709,00;86,19
706,00;86,19
703,00;86,19
700,00;86,15
697,00;86,12
694,00;86,09
691,00;86,06
688,00;86,03
685,00;86,01
682,00;86,00
679,00;85,96
676,00;85,92
673,00;85,88
670,00;85,89
667,00;85,82
664,00;85,72
661,00;85,65
658,00;85,57
655,00;85,47
652,00;85,39
649,00;85,27
646,00;85,19
643,00;85,07
640,00;84,98
637,00;84,83
634,00;84,68
631,00;84,52
628,00;84,40
625,00;84,30
622,00;84,13
619,00;83,97
616,00;83,80
613,00;83,66
610,00;83,46
607,00;83,23
604,00;82,97
601,00;82,66
598,00;82,36
595,00;82,15
592,00;81,82
589,00;81,48
586,00;81,15
583,00;80,79
580,00;80,55
577,00;80,27
574,00;79,90
571,00;79,65
568,00;79,51
565,00;79,21
562,00;79,06
559,00;78,79
556,00;78,59
553,00;78,55
550,00;78,47
547,00;78,22
544,00;77,96
541,00;78,22
538,00;78,15
535,00;78,22
532,00;78,43
529,00;78,40
526,00;78,53
523,00;78,15
520,00;77,94
517,00;77,51
514,00;77,73
511,00;77,91
508,00;76,91
505,00;77,68
502,00;76,56
500,00;75,16