File: FTIR/LNB_28-10-2024/SiO2-SH.csv
Criado como novo conjunto de dados;Amostra 016 por Analyst data segunda-feira, outubro 28 2024
cm-1;%T
4000,00;99,98
3997,00;99,98
3994,00;99,98
3991,00;99,99
3988,00;99,99
3985,00;99,99
3982,00;99,99
3979,00;99,99
3976,00;100,00
3973,00;100,00
3970,00;100,00
3967,00;100,00
3964,00;100,00
3961,00;100,00
3958,00;100,00
3955,00;100,01
3952,00;100,01
3949,00;100,01
3946,00;100,02
3943,00;100,02
3940,00;100,02
3937,00;100,02
3934,00;100,01
3931,00;100,03
3928,00;100,04
3925,00;100,04
3922,00;100,04
3919,00;100,04
3916,00;100,06
3913,00;100,05
3910,00;100,04
3907,00;100,04
3904,00;100,06
3901,00;100,09
3898,00;100,10
3895,00;100,07
3892,00;100,08
3889,00;100,07
3886,00;100,08
3883,00;100,08
3880,00;100,11
3877,00;100,09
3874,00;100,09
3871,00;100,12
3868,00;100,11
3865,00;100,12
3862,00;100,12
3859,00;100,11
3856,00;100,13
3853,00;100,11
3850,00;100,15
3847,00;100,12
3844,00;100,11
3841,00;100,11
3838,00;100,15
3835,00;100,15
3832,00;100,15
3829,00;100,13
3826,00;100,13
3823,00;100,14
3820,00;100,15
3817,00;100,17
3814,00;100,14
3811,00;100,14
3808,00;100,15
3805,00;100,14
3802,00;100,18
3799,00;100,17
3796,00;100,18
3793,00;100,16
3790,00;100,14
3787,00;100,14
3784,00;100,15
3781,00;100,16
3778,00;100,16
3775,00;100,16
3772,00;100,16
3769,00;100,16
3766,00;100,18
3763,00;100,17
3760,00;100,17
3757,00;100,18
3754,00;100,19
3751,00;100,19
3748,00;100,21
3745,00;100,23
3742,00;100,20
3739,00;100,19
3736,00;100,18
3733,00;100,24
3730,00;100,20
3727,00;100,19
3724,00;100,19
3721,00;100,20
3718,00;100,20
3715,00;100,18
3712,00;100,18
3709,00;100,20
3706,00;100,17
3703,00;100,16
3700,00;100,15
3697,00;100,12
3694,00;100,10
3691,00;100,10
3688,00;100,09
3685,00;100,05
3682,00;100,00
3679,00;99,98
3676,00;99,98
3673,00;99,94
3670,00;99,90
3667,00;99,84
3664,00;99,77
3661,00;99,72
3658,00;99,70
3655,00;99,67
3652,00;99,67
3649,00;99,63
3646,00;99,62
3643,00;99,56
3640,00;99,52
3637,00;99,50
3634,00;99,48
3631,00;99,50
3628,00;99,47
3625,00;99,43
3622,00;99,42
3619,00;99,41
3616,00;99,39
3613,00;99,37
3610,00;99,35
3607,00;99,33
3604,00;99,30
3601,00;99,27
3598,00;99,26
3595,00;99,25
3592,00;99,23
3589,00;99,23
3586,00;99,20
3583,00;99,17
3580,00;99,15
3577,00;99,13
3574,00;99,11
3571,00;99,08
3568,00;99,07
3565,00;99,05
3562,00;99,01
3559,00;98,97
3556,00;98,95
3553,00;98,93
3550,00;98,89
3547,00;98,87
3544,00;98,83
3541,00;98,80
3538,00;98,78
3535,00;98,75
3532,00;98,74
3529,00;98,72
3526,00;98,68
3523,00;98,64
3520,00;98,62
3517,00;98,58
3514,00;98,55
3511,00;98,54
3508,00;98,52
3505,00;98,49
3502,00;98,43
3499,00;98,40
3496,00;98,38
3493,00;98,36
3490,00;98,34
3487,00;98,31
3484,00;98,30
3481,00;98,27
3478,00;98,24
3475,00;98,23
3472,00;98,20
3469,00;98,17
3466,00;98,15
3463,00;98,15
3460,00;98,13
3457,00;98,13
3454,00;98,12
3451,00;98,11
3448,00;98,09
3445,00;98,08
3442,00;98,07
3439,00;98,05
3436,00;98,02
3433,00;98,02
3430,00;98,02
3427,00;98,03
3424,00;98,04
3421,00;98,04
3418,00;98,04
3415,00;98,04
3412,00;98,03
3409,00;98,05
3406,00;98,05
3403,00;98,05
3400,00;98,04
3397,00;98,06
3394,00;98,08
3391,00;98,08
3388,00;98,12
3385,00;98,14
3382,00;98,15
3379,00;98,16
3376,00;98,17
3373,00;98,19
3370,00;98,18
3367,00;98,19
3364,00;98,23
3361,00;98,25
3358,00;98,27
3355,00;98,30
3352,00;98,31
3349,00;98,32
3346,00;98,35
3343,00;98,36
3340,00;98,38
3337,00;98,39
3334,00;98,42
3331,00;98,45
3328,00;98,47
3325,00;98,48
3322,00;98,51
3319,00;98,53
3316,00;98,55
3313,00;98,56
3310,00;98,57
3307,00;98,58
3304,00;98,60
3301,00;98,63
3298,00;98,66
3295,00;98,67
3292,00;98,68
3289,00;98,71
3286,00;98,73
3283,00;98,75
3280,00;98,77
3277,00;98,78
3274,00;98,79
3271,00;98,81
3268,00;98,83
3265,00;98,85
3262,00;98,88
3259,00;98,89
3256,00;98,90
3253,00;98,93
3250,00;98,95
3247,00;98,95
3244,00;98,97
3241,00;98,99
3238,00;99,01
3235,00;99,02
3232,00;99,03
3229,00;99,06
3226,00;99,08
3223,00;99,09
3220,00;99,11
3217,00;99,13
3214,00;99,15
3211,00;99,17
3208,00;99,19
3205,00;99,20
3202,00;99,22
3199,00;99,24
3196,00;99,26
3193,00;99,27
3190,00;99,29
3187,00;99,31
3184,00;99,33
3181,00;99,34
3178,00;99,36
3175,00;99,38
3172,00;99,39
3169,00;99,41
3166,00;99,43
3163,00;99,44
3160,00;99,45
3157,00;99,47
3154,00;99,47
3151,00;99,49
3148,00;99,51
3145,00;99,53
3142,00;99,54
3139,00;99,54
3136,00;99,57
3133,00;99,59
3130,00;99,59
3127,00;99,61
3124,00;99,63
3121,00;99,63
3118,00;99,63
3115,00;99,65
3112,00;99,67
3109,00;99,68
3106,00;99,71
3103,00;99,73
3100,00;99,73
3097,00;99,75
3094,00;99,77
3091,00;99,77
3088,00;99,78
3085,00;99,79
3082,00;99,80
3079,00;99,82
3076,00;99,83
3073,00;99,86
3070,00;99,87
3067,00;99,87
3064,00;99,89
3061,00;99,91
3058,00;99,92
3055,00;99,92
3052,00;99,93
3049,00;99,95
3046,00;99,95
3043,00;99,95
3040,00;99,97
3037,00;99,98
3034,00;99,99
3031,00;100,00
3028,00;100,01
3025,00;100,01
3022,00;100,01
3019,00;100,01
3016,00;100,01
3013,00;100,01
3010,00;100,01
3007,00;100,01
3004,00;100,00
3001,00;99,99
2998,00;99,95
2995,00;99,92
2992,00;99,86
2989,00;99,78
2986,00;99,69
2983,00;99,56
2980,00;99,42
2977,00;99,29
2974,00;99,18
2971,00;99,10
2968,00;99,02
2965,00;98,92
2962,00;98,79
2959,00;98,68
2956,00;98,63
2953,00;98,63
2950,00;98,60
2947,00;98,46
2944,00;98,15
2941,00;97,72
2938,00;97,22
2935,00;96,80
2932,00;96,57
2929,00;96,59
2926,00;96,79
2923,00;97,03
2920,00;97,27
2917,00;97,50
2914,00;97,73
2911,00;98,00
2908,00;98,25
2905,00;98,45
2902,00;98,59
2899,00;98,65
2896,00;98,64
2893,00;98,59
2890,00;98,55
2887,00;98,57
2884,00;98,69
2881,00;98,87
2878,00;99,04
2875,00;99,15
2872,00;99,17
2869,00;99,13
2866,00;99,08
2863,00;99,07
2860,00;99,10
2857,00;99,14
2854,00;99,21
2851,00;99,32
2848,00;99,45
2845,00;99,57
2842,00;99,68
2839,00;99,78
2836,00;99,90
2833,00;100,01
2830,00;100,09
2827,00;100,16
2824,00;100,22
2821,00;100,26
2818,00;100,28
2815,00;100,30
2812,00;100,32
2809,00;100,33
2806,00;100,33
2803,00;100,33
2800,00;100,33
2797,00;100,33
2794,00;100,35
2791,00;100,36
2788,00;100,38
2785,00;100,41
2782,00;100,44
2779,00;100,46
2776,00;100,48
2773,00;100,50
2770,00;100,52
2767,00;100,53
2764,00;100,54
2761,00;100,55
2758,00;100,56
2755,00;100,56
2752,00;100,56
2749,00;100,57
2746,00;100,57
2743,00;100,58
2740,00;100,58
2737,00;100,59
2734,00;100,60
2731,00;100,61
2728,00;100,62
2725,00;100,63
2722,00;100,63
2719,00;100,64
2716,00;100,64
2713,00;100,65
2710,00;100,65
2707,00;100,65
2704,00;100,65
2701,00;100,65
2698,00;100,65
2695,00;100,65
2692,00;100,64
2689,00;100,65
2686,00;100,64
2683,00;100,64
2680,00;100,64
2677,00;100,64
2674,00;100,64
2671,00;100,64
2668,00;100,64
2665,00;100,62
2662,00;100,60
2659,00;100,57
2656,00;100,55
2653,00;100,54
2650,00;100,54
2647,00;100,55
2644,00;100,56
2641,00;100,57
2638,00;100,57
2635,00;100,58
2632,00;100,59
2629,00;100,61
2626,00;100,61
2623,00;100,62
2620,00;100,63
2617,00;100,64
2614,00;100,65
2611,00;100,66
2608,00;100,67
2605,00;100,68
2602,00;100,68
2599,00;100,68
2596,00;100,68
2593,00;100,68
2590,00;100,67
2587,00;100,67
2584,00;100,65
2581,00;100,64
2578,00;100,61
2575,00;100,57
2572,00;100,51
2569,00;100,47
2566,00;100,44
2563,00;100,41
2560,00;100,40
2557,00;100,39
2554,00;100,40
2551,00;100,42
2548,00;100,46
2545,00;100,50
2542,00;100,53
2539,00;100,57
2536,00;100,61
2533,00;100,65
2530,00;100,69
2527,00;100,71
2524,00;100,74
2521,00;100,76
2518,00;100,78
2515,00;100,80
2512,00;100,83
2509,00;100,85
2506,00;100,87
2503,00;100,88
2500,00;100,89
2497,00;100,90
2494,00;100,91
2491,00;100,92
2488,00;100,94
2485,00;100,95
2482,00;100,96
2479,00;100,97
2476,00;100,98
2473,00;100,99
2470,00;100,99
2467,00;100,99
2464,00;100,99
2461,00;100,99
2458,00;100,98
2455,00;100,97
2452,00;100,98
2449,00;101,00
2446,00;101,01
2443,00;101,02
2440,00;101,04
2437,00;101,05
2434,00;101,06
2431,00;101,07
2428,00;101,08
2425,00;101,10
2422,00;101,11
2419,00;101,12
2416,00;101,13
2413,00;101,13
2410,00;101,14
2407,00;101,16
2404,00;101,19
2401,00;101,20
2398,00;101,20
2395,00;101,21
2392,00;101,21
2389,00;101,22
2386,00;101,23
2383,00;101,24
2380,00;101,24
2377,00;101,25
2374,00;101,25
2371,00;101,25
2368,00;101,26
2365,00;101,26
2362,00;101,24
2359,00;101,23
2356,00;101,28
2353,00;101,30
2350,00;101,20
2347,00;101,12
2344,00;101,12
2341,00;101,16
2338,00;101,19
2335,00;101,21
2332,00;101,24
2329,00;101,23
2326,00;101,02
2323,00;100,84
2320,00;100,99
2317,00;101,07
2314,00;101,10
2311,00;101,13
2308,00;101,14
2305,00;101,13
2302,00;101,14
2299,00;101,13
2296,00;101,11
2293,00;101,09
2290,00;101,04
2287,00;101,01
2284,00;101,03
2281,00;101,12
2278,00;101,18
2275,00;101,25
2272,00;101,28
2269,00;101,32
2266,00;101,38
2263,00;101,42
2260,00;101,41
2257,00;101,42
2254,00;101,51
2251,00;101,54
2248,00;101,54
2245,00;101,53
2242,00;101,55
2239,00;101,57
2236,00;101,59
2233,00;101,60
2230,00;101,62
2227,00;101,65
2224,00;101,68
2221,00;101,70
2218,00;101,75
2215,00;101,78
2212,00;101,80
2209,00;101,82
2206,00;101,82
2203,00;101,84
2200,00;101,88
2197,00;101,88
2194,00;101,88
2191,00;101,88
2188,00;101,88
2185,00;101,92
2182,00;102,09
2179,00;102,16
2176,00;102,15
2173,00;102,21
2170,00;102,07
2167,00;101,98
2164,00;102,00
2161,00;102,14
2158,00;103,16
2155,00;103,27
2152,00;102,90
2149,00;102,72
2146,00;102,70
2143,00;102,65
2140,00;102,55
2137,00;102,51
2134,00;102,65
2131,00;102,55
2128,00;102,36
2125,00;102,22
2122,00;102,11
2119,00;102,04
2116,00;101,94
2113,00;101,89
2110,00;101,92
2107,00;101,96
2104,00;101,98
2101,00;101,99
2098,00;102,03
2095,00;102,16
2092,00;102,16
2089,00;102,07
2086,00;102,03
2083,00;102,03
2080,00;102,03
2077,00;102,06
2074,00;102,13
2071,00;102,19
2068,00;102,25
2065,00;102,30
2062,00;102,33
2059,00;102,35
2056,00;102,35
2053,00;102,35
2050,00;102,18
2047,00;102,58
2044,00;102,75
2041,00;102,84
2038,00;102,87
2035,00;102,97
2032,00;103,16
2029,00;103,22
2026,00;103,23
2023,00;103,20
2020,00;103,20
2017,00;103,15
2014,00;103,06
2011,00;103,01
2008,00;103,03
2005,00;103,12
2002,00;102,92
1999,00;102,75
1996,00;102,59
1993,00;102,54
1990,00;102,45
1987,00;102,32
1984,00;102,21
1981,00;102,04
1978,00;102,23
1975,00;102,63
1972,00;102,63
1969,00;102,58
1966,00;102,51
1963,00;102,40
1960,00;102,42
1957,00;102,36
1954,00;102,20
1951,00;102,11
1948,00;102,04
1945,00;102,00
1942,00;102,00
1939,00;101,92
1936,00;101,86
1933,00;101,82
1930,00;101,80
1927,00;101,76
1924,00;101,75
1921,00;101,69
1918,00;101,65
1915,00;101,60
1912,00;101,59
1909,00;101,58
1906,00;101,55
1903,00;101,52
1900,00;101,51
1897,00;101,50
1894,00;101,47
1891,00;101,45
1888,00;101,43
1885,00;101,41
1882,00;101,40
1879,00;101,38
1876,00;101,35
1873,00;101,34
1870,00;101,34
1867,00;101,33
1864,00;101,31
1861,00;101,30
1858,00;101,29
1855,00;101,28
1852,00;101,27
1849,00;101,26
1846,00;101,28
1843,00;101,28
1840,00;101,26
1837,00;101,25
1834,00;101,24
1831,00;101,23
1828,00;101,22
1825,00;101,22
1822,00;101,21
1819,00;101,23
1816,00;101,28
1813,00;101,22
1810,00;101,19
1807,00;101,18
1804,00;101,16
1801,00;101,16
1798,00;101,16
1795,00;101,16
1792,00;101,16
1789,00;101,16
1786,00;101,16
1783,00;101,15
1780,00;101,16
1777,00;101,17
1774,00;101,16
1771,00;101,15
1768,00;101,16
1765,00;101,14
1762,00;101,14
1759,00;101,14
1756,00;101,14
1753,00;101,13
1750,00;101,11
1747,00;101,12
1744,00;101,11
1741,00;101,10
1738,00;101,09
1735,00;101,08
1732,00;101,07
1729,00;101,08
1726,00;101,07
1723,00;101,05
1720,00;101,04
1717,00;101,02
1714,00;101,03
1711,00;101,02
1708,00;101,00
1705,00;100,99
1702,00;100,97
1699,00;100,92
1696,00;100,95
1693,00;100,91
1690,00;100,90
1687,00;100,87
1684,00;100,83
1681,00;100,83
1678,00;100,80
1675,00;100,76
1672,00;100,73
1669,00;100,70
1666,00;100,67
1663,00;100,62
1660,00;100,58
1657,00;100,54
1654,00;100,50
1651,00;100,40
1648,00;100,39
1645,00;100,32
1642,00;100,27
1639,00;100,21
1636,00;100,17
1633,00;100,12
1630,00;100,10
1627,00;100,07
1624,00;100,07
1621,00;100,07
1618,00;100,11
1615,00;100,12
1612,00;100,19
1609,00;100,26
1606,00;100,35
1603,00;100,44
1600,00;100,51
1597,00;100,58
1594,00;100,63
1591,00;100,68
1588,00;100,71
1585,00;100,75
1582,00;100,77
1579,00;100,79
1576,00;100,81
1573,00;100,83
1570,00;100,84
1567,00;100,86
1564,00;100,87
1561,00;100,88
1558,00;100,90
1555,00;100,90
1552,00;100,89
1549,00;100,90
1546,00;100,89
1543,00;100,88
1540,00;100,91
1537,00;100,90
1534,00;100,89
1531,00;100,89
1528,00;100,88
1525,00;100,87
1522,00;100,87
1519,00;100,87
1516,00;100,87
1513,00;100,85
1510,00;100,83
1507,00;100,83
1504,00;100,83
1501,00;100,82
1498,00;100,80
1495,00;100,79
1492,00;100,77
1489,00;100,71
1486,00;100,68
1483,00;100,63
1480,00;100,63
1477,00;100,63
1474,00;100,61
1471,00;100,57
1468,00;100,50
1465,00;100,33
1462,00;100,06
1459,00;99,71
1456,00;99,01
1453,00;98,84
1450,00;98,99
1447,00;98,92
1444,00;98,65
1441,00;98,61
1438,00;98,87
1435,00;99,06
1432,00;99,06
1429,00;99,01
1426,00;99,10
1423,00;99,32
1420,00;99,48
1417,00;99,42
1414,00;99,17
1411,00;98,81
1408,00;98,59
1405,00;98,63
1402,00;98,87
1399,00;99,19
1396,00;99,49
1393,00;99,71
1390,00;99,89
1387,00;100,07
1384,00;100,22
1381,00;100,31
1378,00;100,36
1375,00;100,37
1372,00;100,36
1369,00;100,31
1366,00;100,29
1363,00;100,31
1360,00;100,30
1357,00;100,20
1354,00;99,97
1351,00;99,56
1348,00;99,03
1345,00;98,68
1342,00;98,79
1339,00;99,24
1336,00;99,63
1333,00;99,89
1330,00;100,05
1327,00;100,10
1324,00;100,06
1321,00;99,95
1318,00;99,69
1315,00;99,28
1312,00;98,77
1309,00;98,40
1306,00;98,29
1303,00;98,40
1300,00;98,64
1297,00;98,91
1294,00;99,13
1291,00;99,27
1288,00;99,31
1285,00;99,25
1282,00;99,09
1279,00;98,83
1276,00;98,39
1273,00;97,68
1270,00;96,57
1267,00;95,13
1264,00;93,73
1261,00;92,87
1258,00;92,73
1255,00;92,97
1252,00;93,03
1249,00;92,74
1246,00;92,18
1243,00;91,49
1240,00;91,01
1237,00;91,01
1234,00;91,32
1231,00;91,54
1228,00;91,42
1225,00;90,99
1222,00;90,33
1219,00;89,50
1216,00;88,54
1213,00;87,46
1210,00;86,26
1207,00;84,95
1204,00;83,52
1201,00;81,95
1198,00;80,22
1195,00;78,33
1192,00;76,41
1189,00;74,70
1186,00;73,40
1183,00;72,51
1180,00;71,84
1177,00;71,10
1174,00;70,18
1171,00;69,11
1168,00;68,01
1165,00;66,97
1162,00;66,00
1159,00;65,05
1156,00;64,07
1153,00;63,01
1150,00;61,85
1147,00;60,63
1144,00;59,41
1141,00;58,20
1138,00;57,02
1135,00;55,90
1132,00;54,89
1129,00;53,96
1126,00;53,07
1123,00;52,26
1120,00;51,50
1117,00;50,73
1114,00;49,86
1111,00;48,86
1108,00;47,79
1105,00;46,67
1102,00;45,57
1099,00;44,58
1096,00;43,73
1093,00;43,01
1090,00;42,38
1087,00;41,76
1084,00;41,13
1081,00;40,41
1078,00;39,58
1075,00;38,69
1072,00;37,79
1069,00;36,90
1066,00;36,02
1063,00;35,17
1060,00;34,39
1057,00;33,69
1054,00;33,03
1051,00;32,41
1048,00;31,81
1045,00;31,21
1042,00;30,64
1039,00;30,25
1036,00;30,20
1033,00;30,54
1030,00;31,28
1027,00;32,48
1024,00;34,19
1021,00;36,41
1018,00;38,99
1015,00;41,74
1012,00;44,36
1009,00;46,65
1006,00;48,70
1003,00;50,93
1000,00;53,79
997,00;57,36
994,00;61,29
991,00;64,97
988,00;67,87
985,00;69,95
982,00;71,54
979,00;72,95
976,00;74,31
973,00;75,54
970,00;76,49
967,00;77,14
964,00;77,57
961,00;77,91
958,00;78,26
955,00;78,66
952,00;79,12
949,00;79,65
946,00;80,19
943,00;80,72
940,00;81,19
937,00;81,49
934,00;81,58
931,00;81,45
928,00;81,23
925,00;81,08
922,00;81,12
919,00;81,45
916,00;82,02
913,00;82,74
910,00;83,47
907,00;84,16
904,00;84,78
901,00;85,31
898,00;85,73
895,00;86,10
892,00;86,44
889,00;86,74
886,00;87,02
883,00;87,30
880,00;87,59
877,00;87,88
874,00;88,14
871,00;88,34
868,00;88,50
865,00;88,70
862,00;89,00
859,00;89,40
856,00;89,84
853,00;90,20
850,00;90,47
847,00;90,60
844,00;90,57
841,00;90,32
838,00;89,78
835,00;88,86
832,00;87,47
829,00;85,64
826,00;83,49
823,00;81,22
820,00;79,07
817,00;77,17
814,00;75,60
811,00;74,43
808,00;73,66
805,00;73,20
802,00;72,96
799,00;72,94
796,00;73,10
793,00;73,37
790,00;73,73
787,00;74,15
784,00;74,66
781,00;75,26
778,00;75,94
775,00;76,68
772,00;77,43
769,00;78,08
766,00;78,62
763,00;79,04
760,00;79,39
757,00;79,63
754,00;79,82
751,00;80,01
748,00;80,21
745,00;80,46
742,00;80,77
739,00;81,15
736,00;81,61
733,00;82,11
730,00;82,58
727,00;82,95
724,00;83,18
721,00;83,25
718,00;83,15
715,00;82,92
712,00;82,55
709,00;82,02
706,00;81,26
703,00;80,34
700,00;79,20
697,00;78,05
694,00;77,10
691,00;76,58
688,00;76,66
685,00;77,36
682,00;78,35
679,00;79,34
676,00;80,28
673,00;81,15
670,00;82,05
667,00;83,09
664,00;83,76
661,00;84,39
658,00;84,75
655,00;84,94
652,00;85,11
649,00;85,36
646,00;85,68
643,00;86,05
640,00;86,30
637,00;86,44
634,00;86,44
631,00;86,28
628,00;86,11
625,00;85,93
622,00;85,69
619,00;85,45
616,00;85,12
613,00;84,78
610,00;84,35
607,00;83,91
604,00;83,51
601,00;83,12
598,00;82,71
595,00;82,30
592,00;81,88
589,00;81,43
586,00;80,98
583,00;80,47
580,00;80,16
577,00;79,81
574,00;79,46
571,00;79,15
568,00;78,89
565,00;78,66
562,00;78,49
559,00;78,29
556,00;78,26
553,00;78,33
550,00;78,56
547,00;78,74
544,00;78,80
541,00;79,01
538,00;79,34
535,00;79,64
532,00;80,17
529,00;80,52
526,00;80,87
523,00;81,18
520,00;81,21
517,00;81,37
514,00;81,34
511,00;81,03
508,00;80,36
505,00;79,91
502,00;79,66
499,00;76,76
496,00;76,98
493,00;76,53
490,00;72,36
487,00;68,23
484,00;57,25
481,00;60,79
478,00;52,76
475,00;26,53
472,00;50,45
469,00;67,14
466,00;63,09
463,00;307,30
460,00;43,35
457,00;121,02
454,00;373,78
451,00;98,04
448,00;111,88
445,00;53,10
442,00;173,40
439,00;250,52
436,00;139,06
433,00;91,11
430,00;174,51
427,00;91,57
424,00;87,27
421,00;93,91
418,00;69,43
415,00;154,09
412,00;312,83
409,00;75,99
406,00;117,04
403,00;82,26
400,00;144,22