File: FTIR/LNB_28-10-2024/SiO2-SH-500cm-1.csv
Criado como novo conjunto de dados;Amostra 017 por Analyst data segunda-feira, outubro 28 2024
cm-1;%T
4000,00;99,96
3997,00;99,96
3994,00;99,97
3991,00;99,97
3988,00;99,97
3985,00;99,97
3982,00;99,97
3979,00;99,97
3976,00;99,98
3973,00;99,98
3970,00;99,98
3967,00;99,98
3964,00;99,98
3961,00;99,98
3958,00;99,98
3955,00;99,99
3952,00;99,99
3949,00;100,00
3946,00;100,00
3943,00;100,01
3940,00;100,01
3937,00;100,00
3934,00;100,00
3931,00;100,02
3928,00;100,03
3925,00;100,02
3922,00;100,02
3919,00;100,02
3916,00;100,04
3913,00;100,04
3910,00;100,03
3907,00;100,03
3904,00;100,05
3901,00;100,08
3898,00;100,08
3895,00;100,05
3892,00;100,06
3889,00;100,05
3886,00;100,07
3883,00;100,06
3880,00;100,09
3877,00;100,08
3874,00;100,08
3871,00;100,10
3868,00;100,09
3865,00;100,11
3862,00;100,11
3859,00;100,09
3856,00;100,11
3853,00;100,09
3850,00;100,13
3847,00;100,11
3844,00;100,10
3841,00;100,10
3838,00;100,12
3835,00;100,13
3832,00;100,13
3829,00;100,12
3826,00;100,12
3823,00;100,13
3820,00;100,13
3817,00;100,16
3814,00;100,13
3811,00;100,13
3808,00;100,13
3805,00;100,12
3802,00;100,16
3799,00;100,15
3796,00;100,16
3793,00;100,15
3790,00;100,13
3787,00;100,13
3784,00;100,14
3781,00;100,15
3778,00;100,15
3775,00;100,15
3772,00;100,14
3769,00;100,15
3766,00;100,17
3763,00;100,17
3760,00;100,17
3757,00;100,18
3754,00;100,17
3751,00;100,17
3748,00;100,19
3745,00;100,22
3742,00;100,19
3739,00;100,17
3736,00;100,17
3733,00;100,22
3730,00;100,18
3727,00;100,17
3724,00;100,17
3721,00;100,18
3718,00;100,18
3715,00;100,17
3712,00;100,16
3709,00;100,18
3706,00;100,15
3703,00;100,14
3700,00;100,13
3697,00;100,11
3694,00;100,08
3691,00;100,08
3688,00;100,07
3685,00;100,03
3682,00;99,99
3679,00;99,96
3676,00;99,96
3673,00;99,91
3670,00;99,88
3667,00;99,82
3664,00;99,76
3661,00;99,71
3658,00;99,68
3655,00;99,64
3652,00;99,65
3649,00;99,62
3646,00;99,61
3643,00;99,55
3640,00;99,50
3637,00;99,47
3634,00;99,46
3631,00;99,46
3628,00;99,43
3625,00;99,41
3622,00;99,39
3619,00;99,38
3616,00;99,37
3613,00;99,36
3610,00;99,33
3607,00;99,29
3604,00;99,27
3601,00;99,25
3598,00;99,24
3595,00;99,23
3592,00;99,20
3589,00;99,20
3586,00;99,17
3583,00;99,14
3580,00;99,12
3577,00;99,11
3574,00;99,09
3571,00;99,06
3568,00;99,05
3565,00;99,03
3562,00;98,99
3559,00;98,95
3556,00;98,92
3553,00;98,90
3550,00;98,87
3547,00;98,84
3544,00;98,80
3541,00;98,77
3538,00;98,75
3535,00;98,72
3532,00;98,71
3529,00;98,68
3526,00;98,64
3523,00;98,61
3520,00;98,58
3517,00;98,55
3514,00;98,52
3511,00;98,51
3508,00;98,49
3505,00;98,45
3502,00;98,40
3499,00;98,37
3496,00;98,34
3493,00;98,32
3490,00;98,31
3487,00;98,28
3484,00;98,26
3481,00;98,23
3478,00;98,20
3475,00;98,19
3472,00;98,16
3469,00;98,12
3466,00;98,10
3463,00;98,10
3460,00;98,09
3457,00;98,08
3454,00;98,08
3451,00;98,06
3448,00;98,05
3445,00;98,04
3442,00;98,03
3439,00;98,01
3436,00;97,98
3433,00;97,98
3430,00;97,98
3427,00;97,99
3424,00;97,99
3421,00;98,00
3418,00;98,00
3415,00;98,00
3412,00;97,99
3409,00;98,00
3406,00;98,02
3403,00;98,01
3400,00;98,01
3397,00;98,03
3394,00;98,04
3391,00;98,04
3388,00;98,08
3385,00;98,10
3382,00;98,11
3379,00;98,12
3376,00;98,14
3373,00;98,15
3370,00;98,15
3367,00;98,16
3364,00;98,20
3361,00;98,22
3358,00;98,24
3355,00;98,27
3352,00;98,28
3349,00;98,29
3346,00;98,32
3343,00;98,33
3340,00;98,34
3337,00;98,36
3334,00;98,39
3331,00;98,42
3328,00;98,44
3325,00;98,45
3322,00;98,48
3319,00;98,51
3316,00;98,52
3313,00;98,54
3310,00;98,54
3307,00;98,55
3304,00;98,58
3301,00;98,61
3298,00;98,63
3295,00;98,64
3292,00;98,66
3289,00;98,69
3286,00;98,71
3283,00;98,73
3280,00;98,75
3277,00;98,76
3274,00;98,78
3271,00;98,79
3268,00;98,81
3265,00;98,84
3262,00;98,86
3259,00;98,87
3256,00;98,89
3253,00;98,90
3250,00;98,92
3247,00;98,93
3244,00;98,96
3241,00;98,98
3238,00;98,99
3235,00;99,00
3232,00;99,02
3229,00;99,04
3226,00;99,06
3223,00;99,08
3220,00;99,10
3217,00;99,12
3214,00;99,13
3211,00;99,16
3208,00;99,17
3205,00;99,19
3202,00;99,21
3199,00;99,22
3196,00;99,24
3193,00;99,26
3190,00;99,27
3187,00;99,30
3184,00;99,31
3181,00;99,33
3178,00;99,35
3175,00;99,37
3172,00;99,38
3169,00;99,40
3166,00;99,41
3163,00;99,43
3160,00;99,44
3157,00;99,46
3154,00;99,46
3151,00;99,47
3148,00;99,50
3145,00;99,52
3142,00;99,53
3139,00;99,53
3136,00;99,55
3133,00;99,58
3130,00;99,58
3127,00;99,60
3124,00;99,62
3121,00;99,62
3118,00;99,62
3115,00;99,64
3112,00;99,66
3109,00;99,68
3106,00;99,70
3103,00;99,71
3100,00;99,72
3097,00;99,74
3094,00;99,76
3091,00;99,76
3088,00;99,77
3085,00;99,78
3082,00;99,79
3079,00;99,80
3076,00;99,82
3073,00;99,85
3070,00;99,86
3067,00;99,86
3064,00;99,88
3061,00;99,90
3058,00;99,91
3055,00;99,91
3052,00;99,92
3049,00;99,94
3046,00;99,94
3043,00;99,94
3040,00;99,96
3037,00;99,97
3034,00;99,97
3031,00;99,99
3028,00;100,00
3025,00;100,00
3022,00;100,00
3019,00;100,00
3016,00;100,00
3013,00;100,00
3010,00;100,00
3007,00;100,01
3004,00;100,00
3001,00;99,98
2998,00;99,95
2995,00;99,90
2992,00;99,84
2989,00;99,77
2986,00;99,67
2983,00;99,54
2980,00;99,39
2977,00;99,26
2974,00;99,15
2971,00;99,07
2968,00;98,99
2965,00;98,88
2962,00;98,74
2959,00;98,63
2956,00;98,59
2953,00;98,59
2950,00;98,56
2947,00;98,41
2944,00;98,09
2941,00;97,65
2938,00;97,15
2935,00;96,71
2932,00;96,48
2929,00;96,50
2926,00;96,70
2923,00;96,95
2920,00;97,20
2917,00;97,43
2914,00;97,67
2911,00;97,94
2908,00;98,20
2905,00;98,41
2902,00;98,55
2899,00;98,61
2896,00;98,60
2893,00;98,54
2890,00;98,50
2887,00;98,52
2884,00;98,65
2881,00;98,83
2878,00;99,01
2875,00;99,12
2872,00;99,14
2869,00;99,09
2866,00;99,04
2863,00;99,04
2860,00;99,07
2857,00;99,11
2854,00;99,18
2851,00;99,30
2848,00;99,43
2845,00;99,55
2842,00;99,66
2839,00;99,77
2836,00;99,89
2833,00;100,00
2830,00;100,08
2827,00;100,15
2824,00;100,21
2821,00;100,25
2818,00;100,28
2815,00;100,30
2812,00;100,32
2809,00;100,32
2806,00;100,33
2803,00;100,32
2800,00;100,33
2797,00;100,33
2794,00;100,34
2791,00;100,35
2788,00;100,37
2785,00;100,40
2782,00;100,43
2779,00;100,46
2776,00;100,48
2773,00;100,50
2770,00;100,52
2767,00;100,52
2764,00;100,54
2761,00;100,55
2758,00;100,56
2755,00;100,56
2752,00;100,56
2749,00;100,57
2746,00;100,57
2743,00;100,57
2740,00;100,58
2737,00;100,59
2734,00;100,60
2731,00;100,61
2728,00;100,62
2725,00;100,63
2722,00;100,63
2719,00;100,64
2716,00;100,64
2713,00;100,65
2710,00;100,66
2707,00;100,66
2704,00;100,65
2701,00;100,65
2698,00;100,65
2695,00;100,65
2692,00;100,65
2689,00;100,64
2686,00;100,64
2683,00;100,64
2680,00;100,64
2677,00;100,64
2674,00;100,64
2671,00;100,64
2668,00;100,64
2665,00;100,63
2662,00;100,60
2659,00;100,57
2656,00;100,55
2653,00;100,55
2650,00;100,55
2647,00;100,55
2644,00;100,56
2641,00;100,57
2638,00;100,58
2635,00;100,58
2632,00;100,59
2629,00;100,60
2626,00;100,61
2623,00;100,62
2620,00;100,63
2617,00;100,64
2614,00;100,65
2611,00;100,66
2608,00;100,67
2605,00;100,67
2602,00;100,68
2599,00;100,68
2596,00;100,68
2593,00;100,68
2590,00;100,67
2587,00;100,66
2584,00;100,65
2581,00;100,63
2578,00;100,60
2575,00;100,55
2572,00;100,51
2569,00;100,46
2566,00;100,43
2563,00;100,40
2560,00;100,39
2557,00;100,39
2554,00;100,40
2551,00;100,42
2548,00;100,45
2545,00;100,50
2542,00;100,53
2539,00;100,56
2536,00;100,60
2533,00;100,64
2530,00;100,67
2527,00;100,71
2524,00;100,74
2521,00;100,76
2518,00;100,78
2515,00;100,80
2512,00;100,82
2509,00;100,84
2506,00;100,86
2503,00;100,87
2500,00;100,89
2497,00;100,90
2494,00;100,91
2491,00;100,92
2488,00;100,94
2485,00;100,95
2482,00;100,96
2479,00;100,97
2476,00;100,98
2473,00;100,99
2470,00;101,00
2467,00;100,99
2464,00;100,99
2461,00;100,99
2458,00;100,98
2455,00;100,97
2452,00;100,97
2449,00;100,99
2446,00;101,01
2443,00;101,02
2440,00;101,04
2437,00;101,05
2434,00;101,06
2431,00;101,07
2428,00;101,08
2425,00;101,10
2422,00;101,11
2419,00;101,12
2416,00;101,13
2413,00;101,14
2410,00;101,14
2407,00;101,16
2404,00;101,19
2401,00;101,20
2398,00;101,20
2395,00;101,21
2392,00;101,21
2389,00;101,22
2386,00;101,23
2383,00;101,23
2380,00;101,23
2377,00;101,23
2374,00;101,24
2371,00;101,23
2368,00;101,24
2365,00;101,22
2362,00;101,19
2359,00;101,19
2356,00;101,25
2353,00;101,27
2350,00;101,18
2347,00;101,08
2344,00;101,09
2341,00;101,14
2338,00;101,17
2335,00;101,20
2332,00;101,21
2329,00;101,21
2326,00;101,01
2323,00;100,83
2320,00;100,98
2317,00;101,06
2314,00;101,09
2311,00;101,12
2308,00;101,13
2305,00;101,14
2302,00;101,13
2299,00;101,12
2296,00;101,11
2293,00;101,07
2290,00;101,03
2287,00;101,01
2284,00;101,03
2281,00;101,12
2278,00;101,19
2275,00;101,24
2272,00;101,29
2269,00;101,32
2266,00;101,39
2263,00;101,42
2260,00;101,40
2257,00;101,42
2254,00;101,51
2251,00;101,55
2248,00;101,54
2245,00;101,54
2242,00;101,55
2239,00;101,58
2236,00;101,60
2233,00;101,62
2230,00;101,62
2227,00;101,67
2224,00;101,70
2221,00;101,71
2218,00;101,74
2215,00;101,76
2212,00;101,79
2209,00;101,81
2206,00;101,83
2203,00;101,85
2200,00;101,87
2197,00;101,87
2194,00;101,88
2191,00;101,89
2188,00;101,87
2185,00;101,91
2182,00;102,10
2179,00;102,16
2176,00;102,17
2173,00;102,24
2170,00;102,08
2167,00;101,98
2164,00;102,01
2161,00;102,15
2158,00;103,14
2155,00;103,23
2152,00;102,89
2149,00;102,73
2146,00;102,71
2143,00;102,65
2140,00;102,54
2137,00;102,50
2134,00;102,64
2131,00;102,55
2128,00;102,35
2125,00;102,21
2122,00;102,11
2119,00;102,03
2116,00;101,93
2113,00;101,89
2110,00;101,93
2107,00;101,96
2104,00;101,99
2101,00;102,00
2098,00;102,03
2095,00;102,16
2092,00;102,16
2089,00;102,07
2086,00;102,03
2083,00;102,03
2080,00;102,03
2077,00;102,06
2074,00;102,14
2071,00;102,20
2068,00;102,26
2065,00;102,31
2062,00;102,35
2059,00;102,34
2056,00;102,36
2053,00;102,35
2050,00;102,20
2047,00;102,59
2044,00;102,73
2041,00;102,80
2038,00;102,84
2035,00;102,96
2032,00;103,16
2029,00;103,20
2026,00;103,22
2023,00;103,20
2020,00;103,18
2017,00;103,17
2014,00;103,09
2011,00;103,03
2008,00;103,03
2005,00;103,11
2002,00;102,92
1999,00;102,75
1996,00;102,60
1993,00;102,54
1990,00;102,48
1987,00;102,35
1984,00;102,24
1981,00;102,07
1978,00;102,23
1975,00;102,62
1972,00;102,63
1969,00;102,56
1966,00;102,49
1963,00;102,42
1960,00;102,42
1957,00;102,36
1954,00;102,17
1951,00;102,08
1948,00;102,05
1945,00;102,01
1942,00;101,99
1939,00;101,92
1936,00;101,86
1933,00;101,83
1930,00;101,79
1927,00;101,76
1924,00;101,74
1921,00;101,68
1918,00;101,65
1915,00;101,61
1912,00;101,60
1909,00;101,59
1906,00;101,54
1903,00;101,51
1900,00;101,50
1897,00;101,49
1894,00;101,47
1891,00;101,45
1888,00;101,43
1885,00;101,40
1882,00;101,39
1879,00;101,37
1876,00;101,35
1873,00;101,33
1870,00;101,34
1867,00;101,33
1864,00;101,31
1861,00;101,30
1858,00;101,28
1855,00;101,28
1852,00;101,27
1849,00;101,25
1846,00;101,28
1843,00;101,27
1840,00;101,25
1837,00;101,24
1834,00;101,22
1831,00;101,22
1828,00;101,22
1825,00;101,21
1822,00;101,20
1819,00;101,22
1816,00;101,27
1813,00;101,21
1810,00;101,19
1807,00;101,17
1804,00;101,16
1801,00;101,15
1798,00;101,16
1795,00;101,15
1792,00;101,15
1789,00;101,15
1786,00;101,15
1783,00;101,14
1780,00;101,15
1777,00;101,16
1774,00;101,16
1771,00;101,15
1768,00;101,15
1765,00;101,14
1762,00;101,13
1759,00;101,13
1756,00;101,13
1753,00;101,12
1750,00;101,11
1747,00;101,12
1744,00;101,10
1741,00;101,10
1738,00;101,09
1735,00;101,08
1732,00;101,07
1729,00;101,07
1726,00;101,06
1723,00;101,05
1720,00;101,04
1717,00;101,02
1714,00;101,02
1711,00;101,02
1708,00;101,00
1705,00;100,98
1702,00;100,98
1699,00;100,93
1696,00;100,95
1693,00;100,91
1690,00;100,89
1687,00;100,88
1684,00;100,83
1681,00;100,82
1678,00;100,80
1675,00;100,76
1672,00;100,73
1669,00;100,70
1666,00;100,67
1663,00;100,62
1660,00;100,58
1657,00;100,54
1654,00;100,51
1651,00;100,41
1648,00;100,39
1645,00;100,32
1642,00;100,27
1639,00;100,21
1636,00;100,17
1633,00;100,12
1630,00;100,10
1627,00;100,08
1624,00;100,07
1621,00;100,08
1618,00;100,11
1615,00;100,13
1612,00;100,19
1609,00;100,27
1606,00;100,35
1603,00;100,44
1600,00;100,51
1597,00;100,58
1594,00;100,63
1591,00;100,67
1588,00;100,71
1585,00;100,74
1582,00;100,77
1579,00;100,79
1576,00;100,81
1573,00;100,83
1570,00;100,83
1567,00;100,85
1564,00;100,87
1561,00;100,89
1558,00;100,91
1555,00;100,90
1552,00;100,89
1549,00;100,89
1546,00;100,89
1543,00;100,88
1540,00;100,92
1537,00;100,90
1534,00;100,88
1531,00;100,88
1528,00;100,87
1525,00;100,87
1522,00;100,87
1519,00;100,86
1516,00;100,86
1513,00;100,85
1510,00;100,83
1507,00;100,83
1504,00;100,83
1501,00;100,82
1498,00;100,80
1495,00;100,78
1492,00;100,76
1489,00;100,71
1486,00;100,67
1483,00;100,63
1480,00;100,62
1477,00;100,62
1474,00;100,61
1471,00;100,56
1468,00;100,49
1465,00;100,31
1462,00;100,04
1459,00;99,69
1456,00;98,97
1453,00;98,81
1450,00;98,95
1447,00;98,89
1444,00;98,61
1441,00;98,57
1438,00;98,84
1435,00;99,03
1432,00;99,02
1429,00;98,97
1426,00;99,06
1423,00;99,29
1420,00;99,46
1417,00;99,39
1414,00;99,14
1411,00;98,76
1408,00;98,54
1405,00;98,59
1402,00;98,83
1399,00;99,16
1396,00;99,46
1393,00;99,69
1390,00;99,87
1387,00;100,05
1384,00;100,20
1381,00;100,29
1378,00;100,34
1375,00;100,36
1372,00;100,34
1369,00;100,29
1366,00;100,27
1363,00;100,30
1360,00;100,29
1357,00;100,18
1354,00;99,95
1351,00;99,54
1348,00;99,00
1345,00;98,65
1342,00;98,76
1339,00;99,21
1336,00;99,61
1333,00;99,87
1330,00;100,03
1327,00;100,08
1324,00;100,05
1321,00;99,93
1318,00;99,67
1315,00;99,25
1312,00;98,73
1309,00;98,35
1306,00;98,24
1303,00;98,36
1300,00;98,61
1297,00;98,88
1294,00;99,10
1291,00;99,24
1288,00;99,28
1285,00;99,22
1282,00;99,06
1279,00;98,80
1276,00;98,36
1273,00;97,64
1270,00;96,51
1267,00;95,05
1264,00;93,64
1261,00;92,76
1258,00;92,63
1255,00;92,86
1252,00;92,92
1249,00;92,64
1246,00;92,07
1243,00;91,38
1240,00;90,89
1237,00;90,89
1234,00;91,20
1231,00;91,42
1228,00;91,30
1225,00;90,88
1222,00;90,21
1219,00;89,38
1216,00;88,41
1213,00;87,32
1210,00;86,12
1207,00;84,79
1204,00;83,36
1201,00;81,78
1198,00;80,03
1195,00;78,13
1192,00;76,21
1189,00;74,48
1186,00;73,16
1183,00;72,27
1180,00;71,59
1177,00;70,85
1174,00;69,93
1171,00;68,86
1168,00;67,75
1165,00;66,69
1162,00;65,72
1159,00;64,77
1156,00;63,78
1153,00;62,71
1150,00;61,54
1147,00;60,32
1144,00;59,09
1141,00;57,87
1138,00;56,69
1135,00;55,56
1132,00;54,54
1129,00;53,60
1126,00;52,72
1123,00;51,89
1120,00;51,12
1117,00;50,34
1114,00;49,47
1111,00;48,48
1108,00;47,40
1105,00;46,28
1102,00;45,16
1099,00;44,16
1096,00;43,31
1093,00;42,58
1090,00;41,94
1087,00;41,32
1084,00;40,68
1081,00;39,95
1078,00;39,12
1075,00;38,22
1072,00;37,32
1069,00;36,43
1066,00;35,54
1063,00;34,68
1060,00;33,89
1057,00;33,18
1054,00;32,51
1051,00;31,88
1048,00;31,27
1045,00;30,65
1042,00;30,06
1039,00;29,65
1036,00;29,58
1033,00;29,89
1030,00;30,60
1027,00;31,76
1024,00;33,44
1021,00;35,62
1018,00;38,18
1015,00;40,92
1012,00;43,54
1009,00;45,82
1006,00;47,87
1003,00;50,10
1000,00;52,97
997,00;56,55
994,00;60,51
991,00;64,23
988,00;67,18
985,00;69,31
982,00;70,93
979,00;72,37
976,00;73,76
973,00;75,01
970,00;75,99
967,00;76,66
964,00;77,11
961,00;77,46
958,00;77,81
955,00;78,22
952,00;78,71
949,00;79,24
946,00;79,79
943,00;80,33
940,00;80,80
937,00;81,11
934,00;81,20
931,00;81,08
928,00;80,85
925,00;80,69
922,00;80,74
919,00;81,06
916,00;81,64
913,00;82,36
910,00;83,10
907,00;83,81
904,00;84,43
901,00;84,97
898,00;85,41
895,00;85,78
892,00;86,11
889,00;86,43
886,00;86,71
883,00;86,99
880,00;87,28
877,00;87,58
874,00;87,84
871,00;88,05
868,00;88,22
865,00;88,43
862,00;88,73
859,00;89,14
856,00;89,59
853,00;89,97
850,00;90,25
847,00;90,38
844,00;90,36
841,00;90,11
838,00;89,56
835,00;88,64
832,00;87,24
829,00;85,39
826,00;83,22
823,00;80,92
820,00;78,75
817,00;76,83
814,00;75,24
811,00;74,05
808,00;73,25
805,00;72,78
802,00;72,55
799,00;72,53
796,00;72,68
793,00;72,95
790,00;73,29
787,00;73,72
784,00;74,23
781,00;74,83
778,00;75,52
775,00;76,28
772,00;77,03
769,00;77,70
766,00;78,25
763,00;78,70
760,00;79,04
757,00;79,29
754,00;79,48
751,00;79,66
748,00;79,86
745,00;80,12
742,00;80,44
739,00;80,83
736,00;81,29
733,00;81,80
730,00;82,29
727,00;82,65
724,00;82,91
721,00;82,99
718,00;82,91
715,00;82,65
712,00;82,27
709,00;81,73
706,00;80,99
703,00;80,05
700,00;78,91
697,00;77,73
694,00;76,75
691,00;76,23
688,00;76,32
685,00;77,01
682,00;78,01
679,00;78,99
676,00;79,94
673,00;80,84
670,00;81,77
667,00;82,81
664,00;83,50
661,00;84,13
658,00;84,52
655,00;84,71
652,00;84,88
649,00;85,13
646,00;85,49
643,00;85,85
640,00;86,13
637,00;86,25
634,00;86,26
631,00;86,11
628,00;85,96
625,00;85,76
622,00;85,50
619,00;85,23
616,00;84,87
613,00;84,52
610,00;84,12
607,00;83,73
604,00;83,29
601,00;82,86
598,00;82,43
595,00;82,01
592,00;81,58
589,00;81,24
586,00;80,78
583,00;80,28
580,00;79,86
577,00;79,53
574,00;79,22
571,00;78,90
568,00;78,56
565,00;78,32
562,00;78,22
559,00;78,06
556,00;77,92
553,00;78,01
550,00;78,26
547,00;78,42
544,00;78,56
541,00;78,70
538,00;79,05
535,00;79,79
532,00;79,99
529,00;80,26
526,00;80,68
523,00;80,94
520,00;81,07
517,00;81,31
514,00;80,60
511,00;80,42
508,00;80,55
505,00;79,54
502,00;78,07
500,00;78,35