File: FTIR/LNB_28-10-2024/SiO2-PDA.csv
Criado como novo conjunto de dados;Amostra 019 por Analyst data segunda-feira, outubro 28 2024
cm-1;%T
4000,00;101,70
3997,00;101,69
3994,00;101,69
3991,00;101,69
3988,00;101,70
3985,00;101,70
3982,00;101,70
3979,00;101,69
3976,00;101,69
3973,00;101,70
3970,00;101,70
3967,00;101,70
3964,00;101,69
3961,00;101,70
3958,00;101,70
3955,00;101,70
3952,00;101,69
3949,00;101,69
3946,00;101,70
3943,00;101,70
3940,00;101,71
3937,00;101,70
3934,00;101,69
3931,00;101,70
3928,00;101,71
3925,00;101,70
3922,00;101,70
3919,00;101,70
3916,00;101,72
3913,00;101,72
3910,00;101,70
3907,00;101,69
3904,00;101,70
3901,00;101,74
3898,00;101,75
3895,00;101,72
3892,00;101,73
3889,00;101,72
3886,00;101,72
3883,00;101,71
3880,00;101,75
3877,00;101,73
3874,00;101,72
3871,00;101,73
3868,00;101,74
3865,00;101,73
3862,00;101,74
3859,00;101,73
3856,00;101,75
3853,00;101,73
3850,00;101,76
3847,00;101,73
3844,00;101,71
3841,00;101,71
3838,00;101,74
3835,00;101,75
3832,00;101,75
3829,00;101,72
3826,00;101,72
3823,00;101,72
3820,00;101,73
3817,00;101,76
3814,00;101,73
3811,00;101,72
3808,00;101,71
3805,00;101,70
3802,00;101,73
3799,00;101,72
3796,00;101,74
3793,00;101,72
3790,00;101,69
3787,00;101,68
3784,00;101,69
3781,00;101,69
3778,00;101,70
3775,00;101,69
3772,00;101,67
3769,00;101,69
3766,00;101,70
3763,00;101,69
3760,00;101,67
3757,00;101,68
3754,00;101,68
3751,00;101,67
3748,00;101,71
3745,00;101,73
3742,00;101,67
3739,00;101,65
3736,00;101,62
3733,00;101,72
3730,00;101,67
3727,00;101,63
3724,00;101,62
3721,00;101,63
3718,00;101,62
3715,00;101,58
3712,00;101,56
3709,00;101,59
3706,00;101,54
3703,00;101,50
3700,00;101,47
3697,00;101,42
3694,00;101,38
3691,00;101,32
3688,00;101,27
3685,00;101,19
3682,00;101,10
3679,00;101,02
3676,00;100,95
3673,00;100,84
3670,00;100,75
3667,00;100,62
3664,00;100,52
3661,00;100,41
3658,00;100,34
3655,00;100,26
3652,00;100,23
3649,00;100,16
3646,00;100,12
3643,00;100,02
3640,00;99,96
3637,00;99,90
3634,00;99,86
3631,00;99,86
3628,00;99,82
3625,00;99,76
3622,00;99,72
3619,00;99,69
3616,00;99,65
3613,00;99,64
3610,00;99,60
3607,00;99,54
3604,00;99,49
3601,00;99,44
3598,00;99,41
3595,00;99,38
3592,00;99,35
3589,00;99,31
3586,00;99,26
3583,00;99,21
3580,00;99,17
3577,00;99,13
3574,00;99,07
3571,00;99,02
3568,00;98,96
3565,00;98,92
3562,00;98,86
3559,00;98,79
3556,00;98,72
3553,00;98,66
3550,00;98,59
3547,00;98,52
3544,00;98,43
3541,00;98,38
3538,00;98,31
3535,00;98,24
3532,00;98,18
3529,00;98,12
3526,00;98,04
3523,00;97,96
3520,00;97,90
3517,00;97,83
3514,00;97,75
3511,00;97,69
3508,00;97,64
3505,00;97,57
3502,00;97,48
3499,00;97,42
3496,00;97,35
3493,00;97,30
3490,00;97,25
3487,00;97,18
3484,00;97,13
3481,00;97,06
3478,00;97,00
3475,00;96,95
3472,00;96,90
3469,00;96,81
3466,00;96,76
3463,00;96,73
3460,00;96,67
3457,00;96,64
3454,00;96,60
3451,00;96,55
3448,00;96,50
3445,00;96,45
3442,00;96,41
3439,00;96,35
3436,00;96,28
3433,00;96,25
3430,00;96,21
3427,00;96,19
3424,00;96,17
3421,00;96,13
3418,00;96,10
3415,00;96,07
3412,00;96,02
3409,00;96,00
3406,00;95,99
3403,00;95,96
3400,00;95,92
3397,00;95,92
3394,00;95,90
3391,00;95,87
3388,00;95,88
3385,00;95,88
3382,00;95,87
3379,00;95,86
3376,00;95,86
3373,00;95,85
3370,00;95,83
3367,00;95,83
3364,00;95,85
3361,00;95,86
3358,00;95,86
3355,00;95,87
3352,00;95,86
3349,00;95,86
3346,00;95,88
3343,00;95,88
3340,00;95,89
3337,00;95,90
3334,00;95,92
3331,00;95,94
3328,00;95,94
3325,00;95,94
3322,00;95,96
3319,00;95,97
3316,00;95,97
3313,00;95,99
3310,00;95,99
3307,00;95,98
3304,00;95,99
3301,00;96,01
3298,00;96,02
3295,00;96,02
3292,00;96,03
3289,00;96,04
3286,00;96,05
3283,00;96,06
3280,00;96,07
3277,00;96,08
3274,00;96,08
3271,00;96,09
3268,00;96,10
3265,00;96,11
3262,00;96,12
3259,00;96,14
3256,00;96,15
3253,00;96,17
3250,00;96,18
3247,00;96,20
3244,00;96,21
3241,00;96,23
3238,00;96,25
3235,00;96,27
3232,00;96,28
3229,00;96,31
3226,00;96,33
3223,00;96,36
3220,00;96,39
3217,00;96,42
3214,00;96,45
3211,00;96,48
3208,00;96,51
3205,00;96,54
3202,00;96,57
3199,00;96,61
3196,00;96,64
3193,00;96,67
3190,00;96,71
3187,00;96,75
3184,00;96,78
3181,00;96,82
3178,00;96,85
3175,00;96,89
3172,00;96,93
3169,00;96,96
3166,00;97,00
3163,00;97,04
3160,00;97,07
3157,00;97,11
3154,00;97,13
3151,00;97,17
3148,00;97,21
3145,00;97,25
3142,00;97,29
3139,00;97,32
3136,00;97,35
3133,00;97,39
3130,00;97,43
3127,00;97,46
3124,00;97,50
3121,00;97,54
3118,00;97,56
3115,00;97,60
3112,00;97,65
3109,00;97,68
3106,00;97,72
3103,00;97,76
3100,00;97,79
3097,00;97,83
3094,00;97,87
3091,00;97,90
3088,00;97,94
3085,00;97,97
3082,00;98,00
3079,00;98,04
3076,00;98,08
3073,00;98,12
3070,00;98,15
3067,00;98,18
3064,00;98,23
3061,00;98,26
3058,00;98,30
3055,00;98,33
3052,00;98,37
3049,00;98,40
3046,00;98,44
3043,00;98,48
3040,00;98,51
3037,00;98,55
3034,00;98,58
3031,00;98,61
3028,00;98,65
3025,00;98,68
3022,00;98,72
3019,00;98,75
3016,00;98,79
3013,00;98,82
3010,00;98,85
3007,00;98,88
3004,00;98,91
3001,00;98,94
2998,00;98,97
2995,00;98,98
2992,00;99,00
2989,00;99,02
2986,00;99,04
2983,00;99,06
2980,00;99,09
2977,00;99,12
2974,00;99,17
2971,00;99,21
2968,00;99,24
2965,00;99,28
2962,00;99,32
2959,00;99,35
2956,00;99,38
2953,00;99,41
2950,00;99,44
2947,00;99,46
2944,00;99,49
2941,00;99,52
2938,00;99,55
2935,00;99,58
2932,00;99,61
2929,00;99,64
2926,00;99,67
2923,00;99,71
2920,00;99,74
2917,00;99,76
2914,00;99,78
2911,00;99,80
2908,00;99,82
2905,00;99,85
2902,00;99,87
2899,00;99,90
2896,00;99,92
2893,00;99,95
2890,00;99,97
2887,00;99,99
2884,00;100,02
2881,00;100,05
2878,00;100,07
2875,00;100,10
2872,00;100,13
2869,00;100,15
2866,00;100,18
2863,00;100,20
2860,00;100,22
2857,00;100,25
2854,00;100,27
2851,00;100,30
2848,00;100,31
2845,00;100,33
2842,00;100,35
2839,00;100,36
2836,00;100,38
2833,00;100,40
2830,00;100,42
2827,00;100,44
2824,00;100,45
2821,00;100,47
2818,00;100,49
2815,00;100,51
2812,00;100,53
2809,00;100,54
2806,00;100,55
2803,00;100,57
2800,00;100,59
2797,00;100,60
2794,00;100,62
2791,00;100,63
2788,00;100,64
2785,00;100,66
2782,00;100,67
2779,00;100,68
2776,00;100,69
2773,00;100,71
2770,00;100,72
2767,00;100,73
2764,00;100,74
2761,00;100,75
2758,00;100,77
2755,00;100,78
2752,00;100,79
2749,00;100,80
2746,00;100,81
2743,00;100,82
2740,00;100,83
2737,00;100,84
2734,00;100,85
2731,00;100,86
2728,00;100,87
2725,00;100,88
2722,00;100,89
2719,00;100,90
2716,00;100,91
2713,00;100,92
2710,00;100,93
2707,00;100,95
2704,00;100,95
2701,00;100,96
2698,00;100,97
2695,00;100,98
2692,00;100,99
2689,00;101,00
2686,00;101,01
2683,00;101,02
2680,00;101,02
2677,00;101,03
2674,00;101,03
2671,00;101,04
2668,00;101,05
2665,00;101,03
2662,00;100,98
2659,00;100,95
2656,00;100,93
2653,00;100,93
2650,00;100,93
2647,00;100,94
2644,00;100,94
2641,00;100,96
2638,00;100,97
2635,00;100,98
2632,00;101,00
2629,00;101,01
2626,00;101,02
2623,00;101,04
2620,00;101,06
2617,00;101,07
2614,00;101,09
2611,00;101,10
2608,00;101,12
2605,00;101,13
2602,00;101,14
2599,00;101,16
2596,00;101,18
2593,00;101,19
2590,00;101,20
2587,00;101,21
2584,00;101,23
2581,00;101,25
2578,00;101,26
2575,00;101,26
2572,00;101,27
2569,00;101,29
2566,00;101,31
2563,00;101,31
2560,00;101,32
2557,00;101,33
2554,00;101,33
2551,00;101,35
2548,00;101,35
2545,00;101,36
2542,00;101,37
2539,00;101,38
2536,00;101,39
2533,00;101,39
2530,00;101,40
2527,00;101,41
2524,00;101,42
2521,00;101,42
2518,00;101,42
2515,00;101,43
2512,00;101,43
2509,00;101,43
2506,00;101,44
2503,00;101,44
2500,00;101,44
2497,00;101,44
2494,00;101,44
2491,00;101,45
2488,00;101,46
2485,00;101,46
2482,00;101,47
2479,00;101,47
2476,00;101,48
2473,00;101,48
2470,00;101,47
2467,00;101,47
2464,00;101,47
2461,00;101,46
2458,00;101,45
2455,00;101,43
2452,00;101,44
2449,00;101,45
2446,00;101,46
2443,00;101,48
2440,00;101,49
2437,00;101,51
2434,00;101,52
2431,00;101,54
2428,00;101,55
2425,00;101,55
2422,00;101,56
2419,00;101,57
2416,00;101,58
2413,00;101,57
2410,00;101,57
2407,00;101,61
2404,00;101,64
2401,00;101,63
2398,00;101,64
2395,00;101,64
2392,00;101,64
2389,00;101,65
2386,00;101,65
2383,00;101,65
2380,00;101,65
2377,00;101,64
2374,00;101,64
2371,00;101,64
2368,00;101,63
2365,00;101,61
2362,00;101,59
2359,00;101,59
2356,00;101,63
2353,00;101,68
2350,00;101,58
2347,00;101,44
2344,00;101,46
2341,00;101,49
2338,00;101,51
2335,00;101,52
2332,00;101,55
2329,00;101,55
2326,00;101,27
2323,00;101,05
2320,00;101,25
2317,00;101,34
2314,00;101,39
2311,00;101,41
2308,00;101,42
2305,00;101,41
2302,00;101,40
2299,00;101,38
2296,00;101,35
2293,00;101,30
2290,00;101,23
2287,00;101,19
2284,00;101,22
2281,00;101,31
2278,00;101,37
2275,00;101,43
2272,00;101,47
2269,00;101,50
2266,00;101,56
2263,00;101,60
2260,00;101,60
2257,00;101,59
2254,00;101,70
2251,00;101,73
2248,00;101,74
2245,00;101,74
2242,00;101,75
2239,00;101,76
2236,00;101,78
2233,00;101,80
2230,00;101,84
2227,00;101,90
2224,00;101,94
2221,00;101,97
2218,00;102,01
2215,00;102,03
2212,00;102,07
2209,00;102,13
2206,00;102,17
2203,00;102,17
2200,00;102,19
2197,00;102,23
2194,00;102,24
2191,00;102,23
2188,00;102,25
2185,00;102,30
2182,00;102,54
2179,00;102,60
2176,00;102,62
2173,00;102,69
2170,00;102,49
2167,00;102,35
2164,00;102,38
2161,00;102,55
2158,00;103,85
2155,00;103,91
2152,00;103,49
2149,00;103,27
2146,00;103,22
2143,00;103,13
2140,00;103,02
2137,00;102,99
2134,00;103,11
2131,00;102,98
2128,00;102,73
2125,00;102,58
2122,00;102,46
2119,00;102,33
2116,00;102,24
2113,00;102,17
2110,00;102,18
2107,00;102,22
2104,00;102,24
2101,00;102,25
2098,00;102,31
2095,00;102,43
2092,00;102,42
2089,00;102,30
2086,00;102,26
2083,00;102,21
2080,00;102,20
2077,00;102,22
2074,00;102,24
2071,00;102,26
2068,00;102,31
2065,00;102,33
2062,00;102,33
2059,00;102,32
2056,00;102,29
2053,00;102,19
2050,00;101,94
2047,00;102,31
2044,00;102,39
2041,00;102,35
2038,00;102,33
2035,00;102,41
2032,00;102,57
2029,00;102,57
2026,00;102,53
2023,00;102,46
2020,00;102,42
2017,00;102,37
2014,00;102,30
2011,00;102,20
2008,00;102,26
2005,00;102,41
2002,00;102,24
1999,00;102,04
1996,00;101,93
1993,00;101,88
1990,00;101,81
1987,00;101,77
1984,00;101,68
1981,00;101,44
1978,00;101,72
1975,00;102,25
1972,00;102,28
1969,00;102,30
1966,00;102,29
1963,00;102,27
1960,00;102,36
1957,00;102,35
1954,00;102,20
1951,00;102,16
1948,00;102,13
1945,00;102,14
1942,00;102,15
1939,00;102,09
1936,00;102,07
1933,00;102,07
1930,00;102,03
1927,00;102,00
1924,00;101,99
1921,00;101,91
1918,00;101,87
1915,00;101,83
1912,00;101,79
1909,00;101,77
1906,00;101,72
1903,00;101,70
1900,00;101,66
1897,00;101,63
1894,00;101,59
1891,00;101,56
1888,00;101,55
1885,00;101,50
1882,00;101,47
1879,00;101,45
1876,00;101,43
1873,00;101,42
1870,00;101,42
1867,00;101,42
1864,00;101,40
1861,00;101,38
1858,00;101,39
1855,00;101,40
1852,00;101,41
1849,00;101,41
1846,00;101,44
1843,00;101,46
1840,00;101,45
1837,00;101,44
1834,00;101,44
1831,00;101,44
1828,00;101,45
1825,00;101,44
1822,00;101,42
1819,00;101,46
1816,00;101,51
1813,00;101,44
1810,00;101,40
1807,00;101,37
1804,00;101,35
1801,00;101,33
1798,00;101,32
1795,00;101,30
1792,00;101,29
1789,00;101,28
1786,00;101,24
1783,00;101,22
1780,00;101,21
1777,00;101,21
1774,00;101,18
1771,00;101,15
1768,00;101,13
1765,00;101,08
1762,00;101,04
1759,00;101,01
1756,00;100,96
1753,00;100,92
1750,00;100,86
1747,00;100,83
1744,00;100,78
1741,00;100,74
1738,00;100,69
1735,00;100,65
1732,00;100,60
1729,00;100,57
1726,00;100,50
1723,00;100,45
1720,00;100,42
1717,00;100,34
1714,00;100,32
1711,00;100,26
1708,00;100,18
1705,00;100,12
1702,00;100,09
1699,00;99,95
1696,00;99,90
1693,00;99,78
1690,00;99,67
1687,00;99,59
1684,00;99,43
1681,00;99,31
1678,00;99,20
1675,00;99,04
1672,00;98,90
1669,00;98,73
1666,00;98,57
1663,00;98,40
1660,00;98,22
1657,00;98,07
1654,00;97,93
1651,00;97,59
1648,00;97,50
1645,00;97,25
1642,00;97,09
1639,00;96,95
1636,00;96,81
1633,00;96,65
1630,00;96,61
1627,00;96,57
1624,00;96,59
1621,00;96,61
1618,00;96,70
1615,00;96,78
1612,00;96,92
1609,00;97,06
1606,00;97,23
1603,00;97,38
1600,00;97,52
1597,00;97,65
1594,00;97,77
1591,00;97,88
1588,00;97,97
1585,00;98,06
1582,00;98,14
1579,00;98,21
1576,00;98,27
1573,00;98,35
1570,00;98,41
1567,00;98,46
1564,00;98,51
1561,00;98,59
1558,00;98,62
1555,00;98,62
1552,00;98,61
1549,00;98,63
1546,00;98,64
1543,00;98,63
1540,00;98,61
1537,00;98,57
1534,00;98,54
1531,00;98,49
1528,00;98,44
1525,00;98,38
1522,00;98,34
1519,00;98,29
1516,00;98,27
1513,00;98,26
1510,00;98,23
1507,00;98,24
1504,00;98,27
1501,00;98,32
1498,00;98,37
1495,00;98,44
1492,00;98,52
1489,00;98,60
1486,00;98,69
1483,00;98,73
1480,00;98,76
1477,00;98,79
1474,00;98,80
1471,00;98,80
1468,00;98,81
1465,00;98,80
1462,00;98,81
1459,00;98,81
1456,00;98,79
1453,00;98,77
1450,00;98,75
1447,00;98,73
1444,00;98,73
1441,00;98,75
1438,00;98,78
1435,00;98,81
1432,00;98,85
1429,00;98,89
1426,00;98,93
1423,00;98,96
1420,00;98,98
1417,00;98,97
1414,00;98,96
1411,00;98,94
1408,00;98,93
1405,00;98,90
1402,00;98,87
1399,00;98,84
1396,00;98,82
1393,00;98,79
1390,00;98,76
1387,00;98,71
1384,00;98,69
1381,00;98,67
1378,00;98,65
1375,00;98,62
1372,00;98,61
1369,00;98,59
1366,00;98,56
1363,00;98,53
1360,00;98,50
1357,00;98,47
1354,00;98,43
1351,00;98,40
1348,00;98,37
1345,00;98,34
1342,00;98,31
1339,00;98,28
1336,00;98,26
1333,00;98,26
1330,00;98,25
1327,00;98,22
1324,00;98,18
1321,00;98,12
1318,00;98,05
1315,00;97,97
1312,00;97,86
1309,00;97,75
1306,00;97,64
1303,00;97,52
1300,00;97,39
1297,00;97,26
1294,00;97,12
1291,00;96,96
1288,00;96,79
1285,00;96,61
1282,00;96,41
1279,00;96,19
1276,00;95,94
1273,00;95,64
1270,00;95,27
1267,00;94,83
1264,00;94,28
1261,00;93,58
1258,00;92,69
1255,00;91,60
1252,00;90,34
1249,00;88,98
1246,00;87,57
1243,00;86,17
1240,00;84,85
1237,00;83,60
1234,00;82,42
1231,00;81,31
1228,00;80,28
1225,00;79,31
1222,00;78,39
1219,00;77,52
1216,00;76,69
1213,00;75,91
1210,00;75,14
1207,00;74,39
1204,00;73,67
1201,00;72,98
1198,00;72,28
1195,00;71,58
1192,00;70,91
1189,00;70,24
1186,00;69,57
1183,00;68,91
1180,00;68,25
1177,00;67,62
1174,00;66,98
1171,00;66,36
1168,00;65,77
1165,00;65,21
1162,00;64,65
1159,00;64,12
1156,00;63,63
1153,00;63,15
1150,00;62,67
1147,00;62,19
1144,00;61,71
1141,00;61,22
1138,00;60,68
1135,00;60,08
1132,00;59,40
1129,00;58,60
1126,00;57,58
1123,00;56,26
1120,00;54,51
1117,00;52,20
1114,00;49,21
1111,00;45,65
1108,00;41,81
1105,00;38,04
1102,00;34,58
1099,00;31,53
1096,00;28,93
1093,00;26,72
1090,00;24,82
1087,00;23,20
1084,00;21,86
1081,00;20,72
1078,00;19,72
1075,00;18,89
1072,00;18,25
1069,00;17,76
1066,00;17,41
1063,00;17,23
1060,00;17,29
1057,00;17,58
1054,00;18,13
1051,00;19,03
1048,00;20,37
1045,00;22,20
1042,00;24,58
1039,00;27,57
1036,00;31,24
1033,00;35,54
1030,00;40,34
1027,00;45,48
1024,00;50,79
1021,00;56,01
1018,00;60,97
1015,00;65,51
1012,00;69,56
1009,00;73,08
1006,00;76,02
1003,00;78,43
1000,00;80,31
997,00;81,67
994,00;82,51
991,00;82,84
988,00;82,66
985,00;82,02
982,00;81,04
979,00;79,85
976,00;78,62
973,00;77,44
970,00;76,39
967,00;75,47
964,00;74,68
961,00;74,04
958,00;73,56
955,00;73,20
952,00;72,99
949,00;72,93
946,00;72,99
943,00;73,19
940,00;73,55
937,00;74,03
934,00;74,62
931,00;75,35
928,00;76,19
925,00;77,11
922,00;78,10
919,00;79,11
916,00;80,12
913,00;81,12
910,00;82,06
907,00;82,94
904,00;83,78
901,00;84,57
898,00;85,31
895,00;86,01
892,00;86,64
889,00;87,18
886,00;87,66
883,00;88,06
880,00;88,37
877,00;88,63
874,00;88,88
871,00;89,10
868,00;89,28
865,00;89,43
862,00;89,52
859,00;89,54
856,00;89,50
853,00;89,37
850,00;89,13
847,00;88,73
844,00;88,14
841,00;87,34
838,00;86,33
835,00;85,19
832,00;83,96
829,00;82,69
826,00;81,41
823,00;80,14
820,00;78,94
817,00;77,78
814,00;76,69
811,00;75,72
808,00;74,86
805,00;74,15
802,00;73,57
799,00;73,18
796,00;73,00
793,00;73,06
790,00;73,37
787,00;73,95
784,00;74,85
781,00;76,12
778,00;77,66
775,00;79,30
772,00;80,80
769,00;81,89
766,00;82,52
763,00;82,86
760,00;83,06
757,00;83,19
754,00;83,28
751,00;83,36
748,00;83,43
745,00;83,52
742,00;83,63
739,00;83,71
736,00;83,79
733,00;83,87
730,00;83,94
727,00;84,00
724,00;84,07
721,00;84,14
718,00;84,18
715,00;84,20
712,00;84,24
709,00;84,30
706,00;84,34
703,00;84,34
700,00;84,34
697,00;84,35
694,00;84,37
691,00;84,36
688,00;84,36
685,00;84,34
682,00;84,34
679,00;84,32
676,00;84,29
673,00;84,27
670,00;84,31
667,00;84,29
664,00;84,16
661,00;84,08
658,00;84,00
655,00;83,95
652,00;83,84
649,00;83,76
646,00;83,69
643,00;83,60
640,00;83,43
637,00;83,33
634,00;83,14
631,00;83,02
628,00;82,91
625,00;82,68
622,00;82,44
619,00;82,27
616,00;82,05
613,00;81,77
610,00;81,56
607,00;81,18
604,00;80,89
601,00;80,53
598,00;80,24
595,00;79,83
592,00;79,54
589,00;79,09
586,00;78,61
583,00;78,31
580,00;77,93
577,00;77,43
574,00;76,92
571,00;76,55
568,00;76,34
565,00;75,81
562,00;75,48
559,00;75,19
556,00;74,98
553,00;74,80
550,00;74,77
547,00;74,64
544,00;74,53
541,00;74,55
538,00;74,58
535,00;74,93
532,00;74,99
529,00;75,00
526,00;74,82
523,00;74,93
520,00;74,91
517,00;75,14
514,00;74,74
511,00;73,78
508,00;74,22
505,00;73,41
502,00;70,94
500,00;70,12