File: TGA/HCS@MoS2 (3).csv
#EXPORTTYPE:                 ;DATA ALL
#FILE:                       ;HC9@MOS23.ngb-ds3
#FORMAT:                     ;NETZSCH5
#FTYPE:                      ;ASCII
#IDENTITY:                   ;HC9@MOS23
#DECIMAL:                    ;COMMA
#SEPARATOR:                  ;SEMICOLON
#MTYPE:                      ;TG
#INSTRUMENT:                 ;NETZSCH STA 449F3
#PROJECT:                    ;-
#DATE/TIME:                  ;19/11/2024 09:45:33 (UTC-3)
#CORR. FILE:                 ;Correction.ngb-bs3
#TEMPCAL:                    ;Cal_08_2024_Ar_5C.ngb-ts3
#SENSITIVITY:                ;---
#LABORATORY:                 ;Proc de Nanocerümicas
#OPERATOR:                   ;Danilo Janes
#REMARK:                     ;
#SAMPLE:                     ;HC9@MOS23
#SAMPLE MASS /mg:            ;12,2115
#MATERIAL:                   ;
#REFERENCE:                  ;
#REFERENCE MASS /mg:         ;
#TYPE OF CRUCIBLE:           ;DTA/TG crucible Al2O3
#SAMPLE CRUCIBLE MASS /mg:   ;0
#REFERENCE CRUCIBLE MASS /mg:;
#TG RANGE /mg:               ;35000
#TAU-R:                      ;---
#CORR. CODE:                 ;020
#EXO:                        ;-1
#RANGE:                      ;20oC/10,0(K/min)/1000oC
#SEGMENT:                    ;S1/1
#SEG. 1:                     ;20oC/10,0(K/min)/1000oC

##Temp./oC;Time/min;Mass/%;Gas Flow(purge1)/(ml/min);Gas Flow(protective)/(ml/min)
 25,20800; 0,00000;100,00000;20,00000;20,00000
 25,18225; 0,10101; 99,99173;20,00000;20,00000
 25,13637; 0,20201; 99,98430;20,00000;20,00000
 25,13612; 0,30302; 99,96781;20,00000;20,00000
 25,15427; 0,40403; 99,95718;20,00000;20,00000
 25,27029; 0,50503; 99,96418;20,00000;20,00000
 25,43774; 0,60604; 99,95641;20,00000;20,00000
 25,67734; 0,70705; 99,93774;20,00000;20,00000
 25,98560; 0,80805; 99,93432;20,00000;20,00000
 26,35029; 0,90906; 99,92522;20,00000;20,00000
 26,79434; 1,01007; 99,92555;20,00000;20,00000
 27,30916; 1,11107; 99,92231;20,00000;20,00000
 27,85812; 1,21208; 99,90713;20,00000;20,00000
 28,49678; 1,31309; 99,89642;20,00000;20,00000
 29,17218; 1,41409; 99,86853;20,00000;20,00000
 29,90869; 1,51510; 99,85047;20,00000;20,00000
 30,68101; 1,61611; 99,84362;20,00000;20,00000
 31,51474; 1,71711; 99,83868;20,00000;20,00000
 32,40112; 1,81812; 99,83462;20,00000;20,00000
 33,32522; 1,91913; 99,81890;20,00000;20,00000
 34,27231; 2,02013; 99,80751;20,00000;20,00000
 35,28462; 2,12114; 99,77783;20,00000;20,00000
 36,29788; 2,22215; 99,77235;20,00000;20,00000
 37,38315; 2,32315; 99,76389;20,00000;20,00000
 38,48529; 2,42416; 99,75186;20,00000;20,00000
 39,59097; 2,52516; 99,73038;20,00000;20,00000
 40,74579; 2,62617; 99,71435;20,00000;20,00000
 41,92745; 2,72718; 99,69193;20,00000;20,00000
 43,09341; 2,82818; 99,67188;20,00000;20,00000
 44,30892; 2,92919; 99,65049;20,00000;20,00000
 45,54418; 3,03020; 99,61096;20,00000;20,00000
 46,75930; 3,13120; 99,57117;20,00000;20,00000
 48,00551; 3,23221; 99,53485;20,00000;20,00000
 49,24480; 3,33322; 99,49042;20,00000;20,00000
 50,49271; 3,43422; 99,45176;20,00000;20,00000
 51,77074; 3,53523; 99,40391;20,00000;20,00000
 53,00690; 3,63624; 99,35833;20,00000;20,00000
 54,25878; 3,73724; 99,30886;20,00000;20,00000
 55,50235; 3,83825; 99,25824;20,00000;20,00000
 56,73859; 3,93926; 99,19458;20,00000;20,00000
 57,96628; 4,04026; 99,13343;20,00000;20,00000
 59,20463; 4,14127; 99,06993;20,00000;20,00000
 60,40781; 4,24228; 99,00030;20,00000;20,00000
 61,62408; 4,34328; 98,92179;20,00000;20,00000
 62,81383; 4,44429; 98,83856;20,00000;20,00000
 63,98874; 4,54530; 98,74407;20,00000;20,00000
 65,18045; 4,64630; 98,66153;20,00000;20,00000
 66,34952; 4,74731; 98,57699;20,00000;20,00000
 67,48996; 4,84832; 98,49561;20,00000;20,00000
 68,64763; 4,94932; 98,40946;20,00000;20,00000
 69,76238; 5,05033; 98,31751;20,00000;20,00000
 70,86866; 5,15134; 98,20188;20,00000;20,00000
 71,98281; 5,25234; 98,11062;20,00000;20,00000
 73,09043; 5,35335; 98,02606;20,00000;20,00000
 74,16535; 5,45436; 97,93832;20,00000;20,00000
 75,24314; 5,55536; 97,83712;20,00000;20,00000
 76,30389; 5,65637; 97,72913;20,00000;20,00000
 77,34149; 5,75738; 97,62262;20,00000;20,00000
 78,39553; 5,85838; 97,51768;20,00000;20,00000
 79,44446; 5,95939; 97,41100;20,00000;20,00000
 80,45146; 6,06040; 97,30702;20,00000;20,00000
 81,48450; 6,16140; 97,19992;20,00000;20,00000
 82,50309; 6,26241; 97,10198;20,00000;20,00000
 83,49926; 6,36342; 97,00491;20,00000;20,00000
 84,49877; 6,46442; 96,90786;20,00000;20,00000
 85,52491; 6,56543; 96,80489;20,00000;20,00000
 86,52010; 6,66644; 96,69689;20,00000;20,00000
 87,50042; 6,76744; 96,59826;20,00000;20,00000
 88,53041; 6,86845; 96,49740;20,00000;20,00000
 89,50495; 6,96946; 96,39544;20,00000;20,00000
 90,50964; 7,07046; 96,29836;20,00000;20,00000
 91,49792; 7,17147; 96,20613;20,00000;20,00000
 92,49430; 7,27248; 96,11668;20,00000;20,00000
 93,50384; 7,37348; 96,02291;20,00000;20,00000
 94,48766; 7,47449; 95,93308;20,00000;20,00000
 95,47840; 7,57549; 95,83852;20,00000;20,00000
 96,49647; 7,67650; 95,74378;20,00000;20,00000
 97,49226; 7,77751; 95,65240;20,00000;20,00000
 98,47256; 7,87851; 95,55223;20,00000;20,00000
 99,47829; 7,97952; 95,45943;20,00000;20,00000
100,44292; 8,08053; 95,35559;20,00000;20,00000
101,45795; 8,18153; 95,28139;20,00000;20,00000
102,46393; 8,28254; 95,20135;20,00000;20,00000
103,44912; 8,38355; 95,13570;20,00000;20,00000
104,45104; 8,48455; 95,07146;20,00000;20,00000
105,43666; 8,58556; 95,00550;20,00000;20,00000
106,44162; 8,68657; 94,93402;20,00000;20,00000
107,43411; 8,78757; 94,86424;20,00000;20,00000
108,44155; 8,88858; 94,79576;20,00000;20,00000
109,43220; 8,98959; 94,73404;20,00000;20,00000
110,42307; 9,09059; 94,66955;20,00000;20,00000
111,42530; 9,19160; 94,60167;20,00000;20,00000
112,42800; 9,29261; 94,53940;20,00000;20,00000
113,43598; 9,39361; 94,48209;20,00000;20,00000
114,43246; 9,49462; 94,43001;20,00000;20,00000
115,45442; 9,59563; 94,36511;20,00000;20,00000
116,44607; 9,69663; 94,30937;20,00000;20,00000
117,43359; 9,79764; 94,25826;20,00000;20,00000
118,43651; 9,89865; 94,22002;20,00000;20,00000
119,45466; 9,99965; 94,17025;20,00000;20,00000
120,45946;10,10066; 94,12914;20,00000;20,00000
121,46845;10,20167; 94,08971;20,00000;20,00000
122,47635;10,30267; 94,05860;20,00000;20,00000
123,48211;10,40368; 94,02598;20,00000;20,00000
124,49003;10,50469; 93,99436;20,00000;20,00000
125,49420;10,60569; 93,95564;20,00000;20,00000
126,51960;10,70670; 93,91930;20,00000;20,00000
127,52252;10,80771; 93,89220;20,00000;20,00000
128,54435;10,90871; 93,86949;20,00000;20,00000
129,56402;11,00972; 93,83795;20,00000;20,00000
130,57694;11,11073; 93,83285;20,00000;20,00000
131,59332;11,21173; 93,80766;20,00000;20,00000
132,62197;11,31274; 93,77915;20,00000;20,00000
133,63352;11,41375; 93,75517;20,00000;20,00000
134,65160;11,51475; 93,73880;20,00000;20,00000
135,68439;11,61576; 93,72065;20,00000;20,00000
136,69940;11,71677; 93,70001;20,00000;20,00000
137,72176;11,81777; 93,68092;20,00000;20,00000
138,75350;11,91878; 93,65371;20,00000;20,00000
139,76893;12,01979; 93,63475;20,00000;20,00000
140,78611;12,12079; 93,61820;20,00000;20,00000
141,79417;12,22180; 93,60243;20,00000;20,00000
142,83691;12,32281; 93,57791;20,00000;20,00000
143,83649;12,42381; 93,56329;20,00000;20,00000
144,86885;12,52482; 93,55273;20,00000;20,00000
145,88823;12,62583; 93,54071;20,00000;20,00000
146,91502;12,72683; 93,51893;20,00000;20,00000
147,92665;12,82784; 93,50798;20,00000;20,00000
148,95107;12,92884; 93,49239;20,00000;20,00000
149,96235;13,02985; 93,47584;20,00000;20,00000
150,96625;13,13086; 93,44864;20,00000;20,00000
151,98250;13,23186; 93,43962;20,00000;20,00000
153,00707;13,33287; 93,42540;20,00000;20,00000
154,01335;13,43388; 93,41650;20,00000;20,00000
155,03240;13,53488; 93,40394;20,00000;20,00000
156,04214;13,63589; 93,38996;20,00000;20,00000
157,05275;13,73690; 93,37958;20,00000;20,00000
158,07301;13,83790; 93,37136;20,00000;20,00000
159,07138;13,93891; 93,36049;20,00000;20,00000
160,07111;14,03992; 93,35299;20,00000;20,00000
161,07711;14,14092; 93,34458;20,00000;20,00000
162,08629;14,24193; 93,32337;20,00000;20,00000
163,09402;14,34294; 93,31915;20,00000;20,00000
164,10593;14,44394; 93,30929;20,00000;20,00000
165,10312;14,54495; 93,30181;20,00000;20,00000
166,11845;14,64596; 93,29272;20,00000;20,00000
167,13655;14,74696; 93,28829;20,00000;20,00000
168,14310;14,84797; 93,28597;20,00000;20,00000
169,13508;14,94898; 93,27771;20,00000;20,00000
170,14684;15,04998; 93,27192;20,00000;20,00000
171,15910;15,15099; 93,26864;20,00000;20,00000
172,14743;15,25200; 93,26693;20,00000;20,00000
173,16567;15,35300; 93,26206;20,00000;20,00000
174,17510;15,45401; 93,25427;20,00000;20,00000
175,17321;15,55502; 93,24346;20,00000;20,00000
176,19125;15,65602; 93,23333;20,00000;20,00000
177,18402;15,75703; 93,21928;20,00000;20,00000
178,20292;15,85804; 93,20428;20,00000;20,00000
179,21388;15,95904; 93,19335;20,00000;20,00000
180,22143;16,06005; 93,18347;20,00000;20,00000
181,23796;16,16106; 93,17684;20,00000;20,00000
182,23848;16,26206; 93,17020;20,00000;20,00000
183,26678;16,36307; 93,16259;20,00000;20,00000
184,27229;16,46408; 93,15195;20,00000;20,00000
185,28146;16,56508; 93,14908;20,00000;20,00000
186,30418;16,66609; 93,14819;20,00000;20,00000
187,32148;16,76710; 93,14662;20,00000;20,00000
188,34301;16,86810; 93,14512;20,00000;20,00000
189,35613;16,96911; 93,14011;20,00000;20,00000
190,39123;17,07012; 93,13679;20,00000;20,00000
191,39496;17,17112; 93,13347;20,00000;20,00000
192,40973;17,27213; 93,11874;20,00000;20,00000
193,43550;17,37314; 93,10934;20,00000;20,00000
194,44623;17,47414; 93,09806;20,00000;20,00000
195,46899;17,57515; 93,07044;20,00000;20,00000
196,48040;17,67616; 93,05694;20,00000;20,00000
197,50174;17,77716; 93,05103;20,00000;20,00000
198,50617;17,87817; 93,05081;20,00000;20,00000
199,52792;17,97917; 93,05003;20,00000;20,00000
200,55997;18,08018; 93,04261;20,00000;20,00000
201,56600;18,18119; 93,03604;20,00000;20,00000
202,57525;18,28219; 93,02852;20,00000;20,00000
203,59001;18,38320; 93,01856;20,00000;20,00000
204,60044;18,48421; 93,00354;20,00000;20,00000
205,62015;18,58521; 92,98658;20,00000;20,00000
206,61730;18,68622; 92,97271;20,00000;20,00000
207,64510;18,78723; 92,95708;20,00000;20,00000
208,64106;18,88823; 92,94462;20,00000;20,00000
209,68210;18,98924; 92,93216;20,00000;20,00000
210,68251;19,09025; 92,92141;20,00000;20,00000
211,69540;19,19125; 92,90818;20,00000;20,00000
212,71897;19,29226; 92,89167;20,00000;20,00000
213,72074;19,39327; 92,87443;20,00000;20,00000
214,71855;19,49427; 92,86034;20,00000;20,00000
215,72669;19,59528; 92,83743;20,00000;20,00000
216,73577;19,69629; 92,82209;20,00000;20,00000
217,74100;19,79729; 92,80868;20,00000;20,00000
218,75112;19,89830; 92,79541;20,00000;20,00000
219,75406;19,99931; 92,78393;20,00000;20,00000
220,77445;20,10031; 92,77481;20,00000;20,00000
221,78515;20,20132; 92,75091;20,00000;20,00000
222,79543;20,30233; 92,73533;20,00000;20,00000
223,80153;20,40333; 92,72024;20,00000;20,00000
224,82332;20,50434; 92,70452;20,00000;20,00000
225,84172;20,60535; 92,68011;20,00000;20,00000
226,84719;20,70635; 92,66185;20,00000;20,00000
227,83912;20,80736; 92,63891;20,00000;20,00000
228,85631;20,90837; 92,60739;20,00000;20,00000
229,86722;21,00937; 92,57602;20,00000;20,00000
230,86586;21,11038; 92,55202;20,00000;20,00000
231,89655;21,21139; 92,52332;20,00000;20,00000
232,89419;21,31239; 92,49433;20,00000;20,00000
233,90718;21,41340; 92,46843;20,00000;20,00000
234,92179;21,51441; 92,44913;20,00000;20,00000
235,93763;21,61541; 92,42410;20,00000;20,00000
236,94258;21,71642; 92,39282;20,00000;20,00000
237,97946;21,81743; 92,36684;20,00000;20,00000
238,97474;21,91843; 92,32877;20,00000;20,00000
239,98856;22,01944; 92,30009;20,00000;20,00000
240,99948;22,12045; 92,25958;20,00000;20,00000
242,00774;22,22145; 92,22065;20,00000;20,00000
243,02342;22,32246; 92,17952;20,00000;20,00000
244,03242;22,42347; 92,14576;20,00000;20,00000
245,04184;22,52447; 92,10843;20,00000;20,00000
246,05140;22,62548; 92,07817;20,00000;20,00000
247,05594;22,72648; 92,04643;20,00000;20,00000
248,06485;22,82749; 92,00752;20,00000;20,00000
249,08720;22,92850; 91,96948;20,00000;20,00000
250,08830;23,02950; 91,93061;20,00000;20,00000
251,09775;23,13051; 91,89517;20,00000;20,00000
252,10497;23,23152; 91,85511;20,00000;20,00000
253,11267;23,33252; 91,81521;20,00000;20,00000
254,12453;23,43353; 91,76801;20,00000;20,00000
255,13972;23,53454; 91,71525;20,00000;20,00000
256,15227;23,63554; 91,66976;20,00000;20,00000
257,15585;23,73655; 91,61427;20,00000;20,00000
258,17274;23,83756; 91,56668;20,00000;20,00000
259,17455;23,93856; 91,51358;20,00000;20,00000
260,18551;24,03957; 91,45661;20,00000;20,00000
261,18535;24,14058; 91,40048;20,00000;20,00000
262,20276;24,24158; 91,33498;20,00000;20,00000
263,20490;24,34259; 91,28951;20,00000;20,00000
264,20638;24,44360; 91,22654;20,00000;20,00000
265,21943;24,54460; 91,16868;20,00000;20,00000
266,21868;24,64561; 91,10730;20,00000;20,00000
267,23108;24,74662; 91,05180;20,00000;20,00000
268,23736;24,84762; 90,99304;20,00000;20,00000
269,24976;24,94863; 90,93028;20,00000;20,00000
270,25753;25,04964; 90,86464;20,00000;20,00000
271,27231;25,15064; 90,79844;20,00000;20,00000
272,28599;25,25165; 90,73660;20,00000;20,00000
273,29806;25,35266; 90,66986;20,00000;20,00000
274,29804;25,45366; 90,60070;20,00000;20,00000
275,33604;25,55467; 90,53695;20,00000;20,00000
276,33294;25,65568; 90,47330;20,00000;20,00000
277,34813;25,75668; 90,40827;20,00000;20,00000
278,35937;25,85769; 90,32571;20,00000;20,00000
279,37940;25,95870; 90,26400;20,00000;20,00000
280,39219;26,05970; 90,18732;20,00000;20,00000
281,39976;26,16071; 90,11529;20,00000;20,00000
282,41028;26,26172; 90,04373;20,00000;20,00000
283,43522;26,36272; 89,97011;20,00000;20,00000
284,43609;26,46373; 89,90066;20,00000;20,00000
285,44543;26,56474; 89,82564;20,00000;20,00000
286,46718;26,66574; 89,73774;20,00000;20,00000
287,46415;26,76675; 89,65801;20,00000;20,00000
288,48720;26,86776; 89,57482;20,00000;20,00000
289,48741;26,96876; 89,49995;20,00000;20,00000
290,49078;27,06977; 89,41334;20,00000;20,00000
291,50050;27,17078; 89,33431;20,00000;20,00000
292,51279;27,27178; 89,25050;20,00000;20,00000
293,50187;27,37279; 89,17321;20,00000;20,00000
294,51986;27,47380; 89,10633;20,00000;20,00000
295,53616;27,57480; 89,02613;20,00000;20,00000
296,52518;27,67581; 88,94853;20,00000;20,00000
297,54366;27,77681; 88,86560;20,00000;20,00000
298,53650;27,87782; 88,79931;20,00000;20,00000
299,53287;27,97883; 88,72057;20,00000;20,00000
300,53930;28,07983; 88,63382;20,00000;20,00000
301,53569;28,18084; 88,53932;20,00000;20,00000
302,53087;28,28185; 88,45577;20,00000;20,00000
303,53314;28,38285; 88,36989;20,00000;20,00000
304,54415;28,48386; 88,28814;20,00000;20,00000
305,53430;28,58487; 88,19812;20,00000;20,00000
306,54475;28,68587; 88,10848;20,00000;20,00000
307,54578;28,78688; 88,01773;20,00000;20,00000
308,55626;28,88789; 87,91999;20,00000;20,00000
309,56817;28,98889; 87,83657;20,00000;20,00000
310,57795;29,08990; 87,75669;20,00000;20,00000
311,59658;29,19091; 87,67907;20,00000;20,00000
312,60083;29,29191; 87,58125;20,00000;20,00000
313,62492;29,39292; 87,49833;20,00000;20,00000
314,62259;29,49393; 87,41101;20,00000;20,00000
315,64736;29,59493; 87,31289;20,00000;20,00000
316,66524;29,69594; 87,21120;20,00000;20,00000
317,68101;29,79695; 87,11117;20,00000;20,00000
318,71530;29,89795; 87,01209;20,00000;20,00000
319,72497;29,99896; 86,91044;20,00000;20,00000
320,76668;30,09997; 86,82312;20,00000;20,00000
321,77837;30,20097; 86,72728;20,00000;20,00000
322,79118;30,30198; 86,62380;20,00000;20,00000
323,81169;30,40299; 86,53481;20,00000;20,00000
324,82608;30,50399; 86,43068;20,00000;20,00000
325,84236;30,60500; 86,32995;20,00000;20,00000
326,86099;30,70601; 86,23510;20,00000;20,00000
327,87484;30,80701; 86,13029;20,00000;20,00000
328,88470;30,90802; 86,01986;20,00000;20,00000
329,89432;31,00903; 85,91945;20,00000;20,00000
330,89929;31,11003; 85,80350;20,00000;20,00000
331,89547;31,21104; 85,70131;20,00000;20,00000
332,90824;31,31205; 85,59447;20,00000;20,00000
333,89156;31,41305; 85,49360;20,00000;20,00000
334,90777;31,51406; 85,39200;20,00000;20,00000
335,90805;31,61507; 85,28417;20,00000;20,00000
336,91896;31,71607; 85,18516;20,00000;20,00000
337,92194;31,81708; 85,06518;20,00000;20,00000
338,93926;31,91809; 84,95200;20,00000;20,00000
339,94732;32,01909; 84,82905;20,00000;20,00000
340,95300;32,12010; 84,71345;20,00000;20,00000
341,97103;32,22111; 84,59917;20,00000;20,00000
342,97790;32,32211; 84,48005;20,00000;20,00000
343,98437;32,42312; 84,35217;20,00000;20,00000
344,99104;32,52413; 84,22107;20,00000;20,00000
346,00083;32,62513; 84,09221;20,00000;20,00000
347,00437;32,72614; 83,97618;20,00000;20,00000
348,02746;32,82714; 83,85828;20,00000;20,00000
349,01692;32,92815; 83,74310;20,00000;20,00000
350,01989;33,02916; 83,62071;20,00000;20,00000
351,01473;33,13016; 83,49477;20,00000;20,00000
352,03758;33,23117; 83,35802;20,00000;20,00000
353,03631;33,33218; 83,21231;20,00000;20,00000
354,03700;33,43318; 83,06828;20,00000;20,00000
355,04767;33,53419; 82,91792;20,00000;20,00000
356,05405;33,63520; 82,77372;20,00000;20,00000
357,04721;33,73620; 82,64185;20,00000;20,00000
358,05065;33,83721; 82,49954;20,00000;20,00000
359,06411;33,93822; 82,35733;20,00000;20,00000
360,08419;34,03922; 82,19458;20,00000;20,00000
361,08724;34,14023; 82,04850;20,00000;20,00000
362,08945;34,24124; 81,91613;20,00000;20,00000
363,10077;34,34224; 81,78165;20,00000;20,00000
364,10420;34,44325; 81,63174;20,00000;20,00000
365,11526;34,54426; 81,48028;20,00000;20,00000
366,12988;34,64526; 81,34046;20,00000;20,00000
367,12648;34,74627; 81,19052;20,00000;20,00000
368,12326;34,84728; 81,04693;20,00000;20,00000
369,14583;34,94828; 80,91277;20,00000;20,00000
370,15703;35,04929; 80,76696;20,00000;20,00000
371,18196;35,15030; 80,61455;20,00000;20,00000
372,18628;35,25130; 80,46989;20,00000;20,00000
373,19395;35,35231; 80,33991;20,00000;20,00000
374,21512;35,45332; 80,21247;20,00000;20,00000
375,23224;35,55432; 80,06550;20,00000;20,00000
376,23670;35,65533; 79,91123;20,00000;20,00000
377,24760;35,75634; 79,76103;20,00000;20,00000
378,26934;35,85734; 79,61880;20,00000;20,00000
379,27709;35,95835; 79,47416;20,00000;20,00000
380,28772;36,05936; 79,33050;20,00000;20,00000
381,29572;36,16036; 79,18293;20,00000;20,00000
382,32242;36,26137; 79,03669;20,00000;20,00000
383,33391;36,36238; 78,89636;20,00000;20,00000
384,34532;36,46338; 78,75494;20,00000;20,00000
385,35976;36,56439; 78,60501;20,00000;20,00000
386,37084;36,66540; 78,46898;20,00000;20,00000
387,36856;36,76640; 78,32958;20,00000;20,00000
388,36699;36,86741; 78,19325;20,00000;20,00000
389,37138;36,96842; 78,03953;20,00000;20,00000
390,38601;37,06942; 77,90066;20,00000;20,00000
391,40016;37,17043; 77,75147;20,00000;20,00000
392,39637;37,27144; 77,62969;20,00000;20,00000
393,42587;37,37244; 77,49256;20,00000;20,00000
394,42437;37,47345; 77,34551;20,00000;20,00000
395,43089;37,57446; 77,20669;20,00000;20,00000
396,44852;37,67546; 77,05927;20,00000;20,00000
397,47164;37,77647; 76,92121;20,00000;20,00000
398,46584;37,87748; 76,78127;20,00000;20,00000
399,48142;37,97848; 76,64263;20,00000;20,00000
400,48620;38,07949; 76,50084;20,00000;20,00000
401,50597;38,18049; 76,36745;20,00000;20,00000
402,51918;38,28150; 76,23445;20,00000;20,00000
403,52234;38,38251; 76,09572;20,00000;20,00000
404,54299;38,48351; 75,94641;20,00000;20,00000
405,53960;38,58452; 75,79676;20,00000;20,00000
406,55518;38,68553; 75,64664;20,00000;20,00000
407,56110;38,78653; 75,50741;20,00000;20,00000
408,57615;38,88754; 75,36271;20,00000;20,00000
409,58282;38,98855; 75,21515;20,00000;20,00000
410,60247;39,08955; 75,07485;20,00000;20,00000
411,61768;39,19056; 74,92836;20,00000;20,00000
412,61634;39,29157; 74,78203;20,00000;20,00000
413,63166;39,39257; 74,63139;20,00000;20,00000
414,65135;39,49358; 74,48987;20,00000;20,00000
415,65740;39,59459; 74,33746;20,00000;20,00000
416,66281;39,69559; 74,19429;20,00000;20,00000
417,67120;39,79660; 74,04836;20,00000;20,00000
418,70152;39,89761; 73,90819;20,00000;20,00000
419,71061;39,99861; 73,77819;20,00000;20,00000
420,71445;40,09962; 73,64913;20,00000;20,00000
421,73644;40,20063; 73,50636;20,00000;20,00000
422,74576;40,30163; 73,34650;20,00000;20,00000
423,75172;40,40264; 73,19620;20,00000;20,00000
424,76605;40,50365; 73,05546;20,00000;20,00000
425,77684;40,60465; 72,91075;20,00000;20,00000
426,78376;40,70566; 72,76388;20,00000;20,00000
427,79542;40,80667; 72,62424;20,00000;20,00000
428,78838;40,90767; 72,47992;20,00000;20,00000
429,80084;41,00868; 72,33679;20,00000;20,00000
430,81284;41,10969; 72,18326;20,00000;20,00000
431,82130;41,21069; 72,04285;20,00000;20,00000
432,83163;41,31170; 71,88950;20,00000;20,00000
433,84208;41,41271; 71,75270;20,00000;20,00000
434,84353;41,51371; 71,61222;20,00000;20,00000
435,84786;41,61472; 71,46882;20,00000;20,00000
436,84943;41,71573; 71,30784;20,00000;20,00000
437,85583;41,81673; 71,15098;20,00000;20,00000
438,85539;41,91774; 71,00150;20,00000;20,00000
439,86647;42,01875; 70,84128;20,00000;20,00000
440,86853;42,11975; 70,69599;20,00000;20,00000
441,89005;42,22076; 70,54486;20,00000;20,00000
442,89041;42,32177; 70,38872;20,00000;20,00000
443,89809;42,42277; 70,24146;20,00000;20,00000
444,90959;42,52378; 70,09323;20,00000;20,00000
445,92299;42,62479; 69,92713;20,00000;20,00000
446,91653;42,72579; 69,76466;20,00000;20,00000
447,92249;42,82680; 69,60520;20,00000;20,00000
448,93237;42,92781; 69,45384;20,00000;20,00000
449,94768;43,02881; 69,28832;20,00000;20,00000
450,94717;43,12982; 69,12614;20,00000;20,00000
451,95922;43,23082; 68,96460;20,00000;20,00000
452,98358;43,33183; 68,80201;20,00000;20,00000
453,97332;43,43284; 68,64478;20,00000;20,00000
454,99330;43,53384; 68,48306;20,00000;20,00000
456,00160;43,63485; 68,32618;20,00000;20,00000
457,01570;43,73586; 68,16914;20,00000;20,00000
458,02531;43,83686; 68,01212;20,00000;20,00000
459,05126;43,93787; 67,86301;20,00000;20,00000
460,04915;44,03888; 67,70593;20,00000;20,00000
461,06489;44,13988; 67,53652;20,00000;20,00000
462,07160;44,24089; 67,37429;20,00000;20,00000
463,09187;44,34190; 67,21017;20,00000;20,00000
464,09223;44,44290; 67,05328;20,00000;20,00000
465,10434;44,54391; 66,89268;20,00000;20,00000
466,11563;44,64492; 66,72222;20,00000;20,00000
467,13918;44,74592; 66,55862;20,00000;20,00000
468,14967;44,84693; 66,40164;20,00000;20,00000
469,15713;44,94794; 66,24395;20,00000;20,00000
470,16757;45,04894; 66,08785;20,00000;20,00000
471,18448;45,14995; 65,91990;20,00000;20,00000
472,19568;45,25096; 65,75122;20,00000;20,00000
473,20003;45,35196; 65,59150;20,00000;20,00000
474,22387;45,45297; 65,43648;20,00000;20,00000
475,23881;45,55398; 65,27880;20,00000;20,00000
476,24373;45,65498; 65,11936;20,00000;20,00000
477,25269;45,75599; 64,95763;20,00000;20,00000
478,27546;45,85700; 64,78798;20,00000;20,00000
479,26819;45,95800; 64,62450;20,00000;20,00000
480,28686;46,05901; 64,46271;20,00000;20,00000
481,29416;46,16002; 64,29674;20,00000;20,00000
482,29800;46,26102; 64,13135;20,00000;20,00000
483,30267;46,36203; 63,97347;20,00000;20,00000
484,32097;46,46304; 63,80489;20,00000;20,00000
485,31892;46,56404; 63,63341;20,00000;20,00000
486,33435;46,66505; 63,47050;20,00000;20,00000
487,34567;46,76606; 63,31128;20,00000;20,00000
488,35196;46,86706; 63,15436;20,00000;20,00000
489,35424;46,96807; 62,98652;20,00000;20,00000
490,36683;47,06908; 62,82249;20,00000;20,00000
491,37782;47,17008; 62,66128;20,00000;20,00000
492,38932;47,27109; 62,49152;20,00000;20,00000
493,38261;47,37210; 62,31812;20,00000;20,00000
494,42319;47,47310; 62,15673;20,00000;20,00000
495,41838;47,57411; 61,98669;20,00000;20,00000
496,43574;47,67512; 61,81406;20,00000;20,00000
497,43933;47,77612; 61,64391;20,00000;20,00000
498,45585;47,87713; 61,46932;20,00000;20,00000
499,45552;47,97814; 61,29728;20,00000;20,00000
500,46775;48,07914; 61,11834;20,00000;20,00000
501,48446;48,18015; 60,94646;20,00000;20,00000
502,48588;48,28115; 60,76469;20,00000;20,00000
503,49414;48,38216; 60,58451;20,00000;20,00000
504,51999;48,48317; 60,41651;20,00000;20,00000
505,52190;48,58417; 60,24037;20,00000;20,00000
506,52189;48,68518; 60,05511;20,00000;20,00000
507,54205;48,78619; 59,87297;20,00000;20,00000
508,56683;48,88719; 59,69797;20,00000;20,00000
509,57110;48,98820; 59,53239;20,00000;20,00000
510,58970;49,08921; 59,35541;20,00000;20,00000
511,60703;49,19021; 59,18149;20,00000;20,00000
512,62670;49,29122; 58,99868;20,00000;20,00000
513,62336;49,39223; 58,80793;20,00000;20,00000
514,64266;49,49323; 58,62162;20,00000;20,00000
515,65866;49,59424; 58,45054;20,00000;20,00000
516,66049;49,69525; 58,26422;20,00000;20,00000
517,66228;49,79625; 58,08218;20,00000;20,00000
518,67285;49,89726; 57,89840;20,00000;20,00000
519,67905;49,99827; 57,71550;20,00000;20,00000
520,69470;50,09927; 57,53410;20,00000;20,00000
521,69783;50,20028; 57,35863;20,00000;20,00000
522,70389;50,30129; 57,16898;20,00000;20,00000
523,71296;50,40229; 56,98819;20,00000;20,00000
524,72751;50,50330; 56,80325;20,00000;20,00000
525,72777;50,60431; 56,61829;20,00000;20,00000
526,73460;50,70531; 56,44467;20,00000;20,00000
527,74428;50,80632; 56,26377;20,00000;20,00000
528,74662;50,90733; 56,07907;20,00000;20,00000
529,74999;51,00833; 55,89758;20,00000;20,00000
530,76183;51,10934; 55,72103;20,00000;20,00000
531,77064;51,21035; 55,54871;20,00000;20,00000
532,77888;51,31135; 55,37191;20,00000;20,00000
533,78544;51,41236; 55,19429;20,00000;20,00000
534,78686;51,51337; 55,02133;20,00000;20,00000
535,80779;51,61437; 54,84786;20,00000;20,00000
536,81076;51,71538; 54,67938;20,00000;20,00000
537,82536;51,81639; 54,50994;20,00000;20,00000
538,83758;51,91739; 54,33690;20,00000;20,00000
539,86022;52,01840; 54,16385;20,00000;20,00000
540,86399;52,11941; 53,99496;20,00000;20,00000
541,88384;52,22041; 53,82985;20,00000;20,00000
542,89317;52,32142; 53,67436;20,00000;20,00000
543,91498;52,42243; 53,51540;20,00000;20,00000
544,92345;52,52343; 53,35105;20,00000;20,00000
545,93749;52,62444; 53,19045;20,00000;20,00000
546,93744;52,72545; 53,02549;20,00000;20,00000
547,95191;52,82645; 52,87660;20,00000;20,00000
548,96073;52,92746; 52,72064;20,00000;20,00000
549,97111;53,02847; 52,56710;20,00000;20,00000
551,00461;53,12947; 52,41602;20,00000;20,00000
552,00366;53,23048; 52,27186;20,00000;20,00000
552,98396;53,33148; 52,10928;20,00000;20,00000
553,99313;53,43249; 51,96691;20,00000;20,00000
555,00282;53,53350; 51,82471;20,00000;20,00000
556,02460;53,63450; 51,67665;20,00000;20,00000
557,02955;53,73551; 51,53736;20,00000;20,00000
558,04898;53,83652; 51,39561;20,00000;20,00000
559,05861;53,93752; 51,28055;20,00000;20,00000
560,06783;54,03853; 51,11901;20,00000;20,00000
561,09165;54,13954; 50,96046;20,00000;20,00000
562,09910;54,24054; 50,81475;20,00000;20,00000
563,12270;54,34155; 50,67123;20,00000;20,00000
564,14130;54,44256; 50,52107;20,00000;20,00000
565,17980;54,54356; 50,38698;20,00000;20,00000
566,19125;54,64457; 50,26466;20,00000;20,00000
567,21725;54,74558; 50,12696;20,00000;20,00000
568,23776;54,84658; 49,99884;20,00000;20,00000
569,24650;54,94759; 49,86979;20,00000;20,00000
570,26378;55,04860; 49,74684;20,00000;20,00000
571,28802;55,14960; 49,60806;20,00000;20,00000
572,29256;55,25061; 49,46565;20,00000;20,00000
573,30510;55,35162; 49,33368;20,00000;20,00000
574,31538;55,45262; 49,20767;20,00000;20,00000
575,32505;55,55363; 49,07097;20,00000;20,00000
576,33353;55,65464; 48,94812;20,00000;20,00000
577,33787;55,75564; 48,82579;20,00000;20,00000
578,33427;55,85665; 48,71001;20,00000;20,00000
579,33898;55,95766; 48,58838;20,00000;20,00000
580,35358;56,05866; 48,46058;20,00000;20,00000
581,34982;56,15967; 48,34008;20,00000;20,00000
582,35731;56,26068; 48,22273;20,00000;20,00000
583,35278;56,36168; 48,08913;20,00000;20,00000
584,35859;56,46269; 47,96425;20,00000;20,00000
585,39052;56,56370; 47,83702;20,00000;20,00000
586,39561;56,66470; 47,72675;20,00000;20,00000
587,41049;56,76571; 47,62002;20,00000;20,00000
588,40698;56,86672; 47,50357;20,00000;20,00000
589,41500;56,96772; 47,39347;20,00000;20,00000
590,42134;57,06873; 47,26264;20,00000;20,00000
591,43045;57,16974; 47,15335;20,00000;20,00000
592,43707;57,27074; 47,03946;20,00000;20,00000
593,46333;57,37175; 46,93343;20,00000;20,00000
594,47588;57,47276; 46,81186;20,00000;20,00000
595,48607;57,57376; 46,69936;20,00000;20,00000
596,50055;57,67477; 46,58769;20,00000;20,00000
597,50971;57,77578; 46,46675;20,00000;20,00000
598,53741;57,87678; 46,35325;20,00000;20,00000
599,54843;57,97779; 46,23710;20,00000;20,00000
600,55824;58,07880; 46,10820;20,00000;20,00000
601,57485;58,17980; 45,98145;20,00000;20,00000
602,58719;58,28081; 45,85847;20,00000;20,00000
603,59766;58,38181; 45,74770;20,00000;20,00000
604,60963;58,48282; 45,63583;20,00000;20,00000
605,62039;58,58383; 45,52740;20,00000;20,00000
606,62853;58,68483; 45,41393;20,00000;20,00000
607,64545;58,78584; 45,29992;20,00000;20,00000
608,64663;58,88685; 45,18606;20,00000;20,00000
609,65546;58,98785; 45,07261;20,00000;20,00000
610,65287;59,08886; 44,95751;20,00000;20,00000
611,66263;59,18987; 44,84068;20,00000;20,00000
612,66872;59,29087; 44,71671;20,00000;20,00000
613,68264;59,39188; 44,60650;20,00000;20,00000
614,68714;59,49289; 44,49079;20,00000;20,00000
615,68974;59,59389; 44,35726;20,00000;20,00000
616,69702;59,69490; 44,22415;20,00000;20,00000
617,70864;59,79591; 44,10138;20,00000;20,00000
618,70555;59,89691; 43,98872;20,00000;20,00000
619,71855;59,99792; 43,88043;20,00000;20,00000
620,72914;60,09893; 43,77362;20,00000;20,00000
621,74637;60,19993; 43,65645;20,00000;20,00000
622,75141;60,30094; 43,53850;20,00000;20,00000
623,75875;60,40195; 43,42091;20,00000;20,00000
624,76754;60,50295; 43,31146;20,00000;20,00000
625,77712;60,60396; 43,20087;20,00000;20,00000
626,78653;60,70497; 43,08015;20,00000;20,00000
627,78963;60,80597; 42,97659;20,00000;20,00000
628,80302;60,90698; 42,86027;20,00000;20,00000
629,80479;61,00799; 42,72987;20,00000;20,00000
630,81470;61,10899; 42,59647;20,00000;20,00000
631,82598;61,21000; 42,48454;20,00000;20,00000
632,83469;61,31101; 42,38229;20,00000;20,00000
633,84052;61,41201; 42,26953;20,00000;20,00000
634,85018;61,51302; 42,16711;20,00000;20,00000
635,86712;61,61403; 42,05336;20,00000;20,00000
636,87965;61,71503; 41,94587;20,00000;20,00000
637,88731;61,81604; 41,83301;20,00000;20,00000
638,89579;61,91705; 41,72973;20,00000;20,00000
639,90953;62,01805; 41,62348;20,00000;20,00000
640,93766;62,11906; 41,51393;20,00000;20,00000
641,94365;62,22007; 41,40841;20,00000;20,00000
642,95431;62,32107; 41,30271;20,00000;20,00000
643,97088;62,42208; 41,19401;20,00000;20,00000
644,98932;62,52309; 41,08878;20,00000;20,00000
645,99487;62,62409; 40,97365;20,00000;20,00000
647,01372;62,72510; 40,86471;20,00000;20,00000
648,03335;62,82611; 40,75482;20,00000;20,00000
649,02988;62,92711; 40,64542;20,00000;20,00000
650,05314;63,02812; 40,53027;20,00000;20,00000
651,06085;63,12913; 40,41907;20,00000;20,00000
652,07140;63,23013; 40,30368;20,00000;20,00000
653,08430;63,33114; 40,19206;20,00000;20,00000
654,08945;63,43214; 40,08264;20,00000;20,00000
655,10344;63,53315; 39,97309;20,00000;20,00000
656,10524;63,63416; 39,86229;20,00000;20,00000
657,11393;63,73516; 39,74792;20,00000;20,00000
658,12667;63,83617; 39,62358;20,00000;20,00000
659,12540;63,93718; 39,50540;20,00000;20,00000
660,13292;64,03818; 39,39478;20,00000;20,00000
661,13931;64,13919; 39,28789;20,00000;20,00000
662,15714;64,24020; 39,18000;20,00000;20,00000
663,15874;64,34120; 39,07410;20,00000;20,00000
664,16415;64,44221; 38,96082;20,00000;20,00000
665,17406;64,54322; 38,84833;20,00000;20,00000
666,18536;64,64422; 38,73620;20,00000;20,00000
667,18801;64,74523; 38,62847;20,00000;20,00000
668,20022;64,84624; 38,52245;20,00000;20,00000
669,20466;64,94724; 38,42209;20,00000;20,00000
670,22709;65,04825; 38,31329;20,00000;20,00000
671,21540;65,14926; 38,20179;20,00000;20,00000
672,23661;65,25026; 38,09340;20,00000;20,00000
673,24902;65,35127; 37,98333;20,00000;20,00000
674,25536;65,45228; 37,88616;20,00000;20,00000
675,27049;65,55328; 37,78370;20,00000;20,00000
676,30434;65,65429; 37,66973;20,00000;20,00000
677,28650;65,75530; 37,57608;20,00000;20,00000
678,28679;65,85630; 37,46484;20,00000;20,00000
679,31737;65,95731; 37,35250;20,00000;20,00000
680,33184;66,05832; 37,24967;20,00000;20,00000
681,34357;66,15932; 37,14266;20,00000;20,00000
682,35810;66,26033; 37,03351;20,00000;20,00000
683,37612;66,36134; 36,92181;20,00000;20,00000
684,37563;66,46234; 36,82501;20,00000;20,00000
685,40580;66,56335; 36,72383;20,00000;20,00000
686,41860;66,66436; 36,62421;20,00000;20,00000
687,41398;66,76536; 36,52442;20,00000;20,00000
688,43414;66,86637; 36,42996;20,00000;20,00000
689,45461;66,96738; 36,35534;20,00000;20,00000
690,47695;67,06838; 36,30365;20,00000;20,00000
691,49487;67,16939; 36,26129;20,00000;20,00000
692,47743;67,27040; 36,23627;20,00000;20,00000
693,43186;67,37140; 36,25083;20,00000;20,00000
694,38543;67,47241; 36,34500;20,00000;20,00000
695,33166;67,57342; 36,50193;20,00000;20,00000
696,29785;67,67442; 36,66736;20,00000;20,00000
697,26668;67,77543; 36,81054;20,00000;20,00000
698,23813;67,87644; 36,89694;20,00000;20,00000
699,22395;67,97744; 36,95974;20,00000;20,00000
700,22324;68,07845; 37,01364;20,00000;20,00000
701,20451;68,17946; 37,05812;20,00000;20,00000
702,20352;68,28046; 37,09959;20,00000;20,00000
703,21565;68,38147; 37,13644;20,00000;20,00000
704,24289;68,48247; 37,16311;20,00000;20,00000
705,28040;68,58348; 37,18856;20,00000;20,00000
706,32276;68,68449; 37,20753;20,00000;20,00000
707,37476;68,78549; 37,21911;20,00000;20,00000
708,41959;68,88650; 37,23074;20,00000;20,00000
709,47621;68,98751; 37,23838;20,00000;20,00000
710,53332;69,08851; 37,24755;20,00000;20,00000
711,58607;69,18952; 37,25341;20,00000;20,00000
712,63999;69,29053; 37,25340;20,00000;20,00000
713,68985;69,39153; 37,25423;20,00000;20,00000
714,72481;69,49254; 37,25505;20,00000;20,00000
715,77178;69,59355; 37,25506;20,00000;20,00000
716,78932;69,69455; 37,25617;20,00000;20,00000
717,81801;69,79556; 37,26238;20,00000;20,00000
718,85201;69,89657; 37,26476;20,00000;20,00000
719,86427;69,99757; 37,26953;20,00000;20,00000
720,87115;70,09858; 37,27309;20,00000;20,00000
721,87871;70,19959; 37,27552;20,00000;20,00000
722,89218;70,30059; 37,27878;20,00000;20,00000
723,89436;70,40160; 37,28123;20,00000;20,00000
724,88370;70,50261; 37,28205;20,00000;20,00000
725,87835;70,60361; 37,28207;20,00000;20,00000
726,88568;70,70462; 37,26898;20,00000;20,00000
727,89565;70,80563; 37,26727;20,00000;20,00000
728,89347;70,90663; 37,26839;20,00000;20,00000
729,88493;71,00764; 37,26721;20,00000;20,00000
730,88926;71,10865; 37,26600;20,00000;20,00000
731,89138;71,20965; 37,25588;20,00000;20,00000
732,88875;71,31066; 37,25338;20,00000;20,00000
733,89511;71,41167; 37,24899;20,00000;20,00000
734,90669;71,51267; 37,24284;20,00000;20,00000
735,91822;71,61368; 37,24054;20,00000;20,00000
736,92713;71,71469; 37,24266;20,00000;20,00000
737,95078;71,81569; 37,23991;20,00000;20,00000
738,95697;71,91670; 37,23399;20,00000;20,00000
739,97406;72,01771; 37,22756;20,00000;20,00000
740,99080;72,11871; 37,21828;20,00000;20,00000
742,00808;72,21972; 37,21082;20,00000;20,00000
743,02429;72,32073; 37,20835;20,00000;20,00000
744,03317;72,42173; 37,19678;20,00000;20,00000
745,05736;72,52274; 37,19169;20,00000;20,00000
746,06296;72,62375; 37,18431;20,00000;20,00000
747,08683;72,72475; 37,17560;20,00000;20,00000
748,09075;72,82576; 37,16897;20,00000;20,00000
749,10454;72,92677; 37,15637;20,00000;20,00000
750,11971;73,02777; 37,14248;20,00000;20,00000
751,12518;73,12878; 37,12810;20,00000;20,00000
752,12677;73,22979; 37,12323;20,00000;20,00000
753,15404;73,33079; 37,11244;20,00000;20,00000
754,13802;73,43180; 37,10165;20,00000;20,00000
755,14030;73,53280; 37,09588;20,00000;20,00000
756,13914;73,63381; 37,07947;20,00000;20,00000
757,14333;73,73482; 37,06356;20,00000;20,00000
758,15744;73,83582; 37,04691;20,00000;20,00000
759,16363;73,93683; 37,02959;20,00000;20,00000
760,17229;74,03784; 37,01246;20,00000;20,00000
761,18579;74,13884; 36,99391;20,00000;20,00000
762,18655;74,23985; 36,98156;20,00000;20,00000
763,19036;74,34086; 36,96418;20,00000;20,00000
764,20428;74,44186; 36,94518;20,00000;20,00000
765,19349;74,54287; 36,92825;20,00000;20,00000
766,18455;74,64388; 36,91783;20,00000;20,00000
767,18125;74,74488; 36,89983;20,00000;20,00000
768,17956;74,84589; 36,87418;20,00000;20,00000
769,17627;74,94690; 36,85036;20,00000;20,00000
770,19679;75,04790; 36,82400;20,00000;20,00000
771,21843;75,14891; 36,80091;20,00000;20,00000
772,22620;75,24992; 36,77518;20,00000;20,00000
773,25242;75,35092; 36,75955;20,00000;20,00000
774,26486;75,45193; 36,74250;20,00000;20,00000
775,30341;75,55294; 36,71766;20,00000;20,00000
776,34899;75,65394; 36,68106;20,00000;20,00000
777,36180;75,75495; 36,65848;20,00000;20,00000
778,38225;75,85596; 36,62492;20,00000;20,00000
779,40027;75,95696; 36,58643;20,00000;20,00000
780,42631;76,05797; 36,55654;20,00000;20,00000
781,47317;76,15898; 36,52170;20,00000;20,00000
782,49483;76,25998; 36,48365;20,00000;20,00000
783,50269;76,36099; 36,45221;20,00000;20,00000
784,50464;76,46200; 36,41178;20,00000;20,00000
785,52637;76,56300; 36,36822;20,00000;20,00000
786,51731;76,66401; 36,32758;20,00000;20,00000
787,51782;76,76502; 36,28510;20,00000;20,00000
788,50900;76,86602; 36,24314;20,00000;20,00000
789,51287;76,96703; 36,20956;20,00000;20,00000
790,52609;77,06804; 36,16881;20,00000;20,00000
791,52195;77,16904; 36,11778;20,00000;20,00000
792,50843;77,27005; 36,09466;20,00000;20,00000
793,51074;77,37106; 36,06067;20,00000;20,00000
794,51955;77,47206; 36,01571;20,00000;20,00000
795,52139;77,57307; 35,96541;20,00000;20,00000
796,53125;77,67408; 35,90827;20,00000;20,00000
797,54949;77,77508; 35,86627;20,00000;20,00000
798,54642;77,87609; 35,82252;20,00000;20,00000
799,55838;77,97710; 35,77719;20,00000;20,00000
800,57032;78,07810; 35,73903;20,00000;20,00000
801,59332;78,17911; 35,69545;20,00000;20,00000
802,60004;78,28012; 35,63438;20,00000;20,00000
803,62691;78,38112; 35,58763;20,00000;20,00000
804,63605;78,48213; 35,52937;20,00000;20,00000
805,65457;78,58313; 35,47115;20,00000;20,00000
806,65533;78,68414; 35,41560;20,00000;20,00000
807,68145;78,78515; 35,36315;20,00000;20,00000
808,69915;78,88615; 35,30557;20,00000;20,00000
809,71187;78,98716; 35,24993;20,00000;20,00000
810,71851;79,08817; 35,19144;20,00000;20,00000
811,74115;79,18917; 35,13490;20,00000;20,00000
812,74785;79,29018; 35,08241;20,00000;20,00000
813,75672;79,39119; 35,01789;20,00000;20,00000
814,77090;79,49219; 34,95294;20,00000;20,00000
815,76444;79,59320; 34,88876;20,00000;20,00000
816,78298;79,69421; 34,82695;20,00000;20,00000
817,79287;79,79521; 34,75861;20,00000;20,00000
818,79060;79,89622; 34,69645;20,00000;20,00000
819,79461;79,99723; 34,63026;20,00000;20,00000
820,79401;80,09823; 34,56179;20,00000;20,00000
821,80772;80,19924; 34,50149;20,00000;20,00000
822,81041;80,30025; 34,43801;20,00000;20,00000
823,82202;80,40125; 34,38724;20,00000;20,00000
824,83337;80,50226; 34,32767;20,00000;20,00000
825,83021;80,60327; 34,26402;20,00000;20,00000
826,83617;80,70427; 34,20015;20,00000;20,00000
827,84956;80,80528; 34,13334;20,00000;20,00000
828,87043;80,90629; 34,06959;20,00000;20,00000
829,87306;81,00729; 34,00061;20,00000;20,00000
830,87899;81,10830; 33,91983;20,00000;20,00000
831,89837;81,20931; 33,86081;20,00000;20,00000
832,89499;81,31031; 33,79577;20,00000;20,00000
833,91789;81,41132; 33,73043;20,00000;20,00000
834,93431;81,51233; 33,66810;20,00000;20,00000
835,94086;81,61333; 33,59859;20,00000;20,00000
836,95797;81,71434; 33,54121;20,00000;20,00000
837,96713;81,81535; 33,47485;20,00000;20,00000
838,98394;81,91635; 33,39135;20,00000;20,00000
840,00540;82,01736; 33,33114;20,00000;20,00000
841,00789;82,11837; 33,25532;20,00000;20,00000
842,01879;82,21937; 33,18026;20,00000;20,00000
843,03375;82,32038; 33,11036;20,00000;20,00000
844,03651;82,42139; 33,03919;20,00000;20,00000
845,05259;82,52239; 32,97209;20,00000;20,00000
846,06233;82,62340; 32,90677;20,00000;20,00000
847,07174;82,72441; 32,83913;20,00000;20,00000
848,08538;82,82541; 32,75504;20,00000;20,00000
849,09130;82,92642; 32,67460;20,00000;20,00000
850,09740;83,02743; 32,59156;20,00000;20,00000
851,11132;83,12843; 32,50718;20,00000;20,00000
852,13048;83,22944; 32,43060;20,00000;20,00000
853,13936;83,33045; 32,35296;20,00000;20,00000
854,15030;83,43145; 32,27575;20,00000;20,00000
855,16092;83,53246; 32,20114;20,00000;20,00000
856,17070;83,63346; 32,12993;20,00000;20,00000
857,17375;83,73447; 32,04715;20,00000;20,00000
858,19082;83,83548; 31,96338;20,00000;20,00000
859,19326;83,93648; 31,88065;20,00000;20,00000
860,20942;84,03749; 31,80382;20,00000;20,00000
861,21873;84,13850; 31,72242;20,00000;20,00000
862,22645;84,23950; 31,64935;20,00000;20,00000
863,24119;84,34051; 31,57616;20,00000;20,00000
864,24305;84,44152; 31,49574;20,00000;20,00000
865,25423;84,54252; 31,41532;20,00000;20,00000
866,25719;84,64353; 31,33669;20,00000;20,00000
867,26449;84,74454; 31,25407;20,00000;20,00000
868,27403;84,84554; 31,14956;20,00000;20,00000
869,29295;84,94655; 31,05363;20,00000;20,00000
870,29895;85,04756; 30,95399;20,00000;20,00000
871,30449;85,14856; 30,87702;20,00000;20,00000
872,32564;85,24957; 30,79003;20,00000;20,00000
873,32777;85,35058; 30,70659;20,00000;20,00000
874,34725;85,45158; 30,61053;20,00000;20,00000
875,35794;85,55259; 30,51848;20,00000;20,00000
876,36407;85,65360; 30,43003;20,00000;20,00000
877,37468;85,75460; 30,32247;20,00000;20,00000
878,38134;85,85561; 30,22757;20,00000;20,00000
879,39797;85,95662; 30,11832;20,00000;20,00000
880,40941;86,05762; 30,01193;20,00000;20,00000
881,41446;86,15863; 29,90397;20,00000;20,00000
882,42645;86,25964; 29,79789;20,00000;20,00000
883,43263;86,36064; 29,68253;20,00000;20,00000
884,44014;86,46165; 29,55538;20,00000;20,00000
885,45081;86,56266; 29,44120;20,00000;20,00000
886,46675;86,66366; 29,33476;20,00000;20,00000
887,48528;86,76467; 29,22571;20,00000;20,00000
888,49126;86,86568; 29,10325;20,00000;20,00000
889,49840;86,96668; 28,97207;20,00000;20,00000
890,50681;87,06769; 28,83702;20,00000;20,00000
891,51773;87,16870; 28,70487;20,00000;20,00000
892,53900;87,26970; 28,56678;20,00000;20,00000
893,54359;87,37071; 28,43787;20,00000;20,00000
894,55515;87,47172; 28,31110;20,00000;20,00000
895,55928;87,57272; 28,16714;20,00000;20,00000
896,56529;87,67373; 28,01675;20,00000;20,00000
897,57323;87,77474; 27,85913;20,00000;20,00000
898,59110;87,87574; 27,69962;20,00000;20,00000
899,60378;87,97675; 27,54890;20,00000;20,00000
900,60629;88,07776; 27,39440;20,00000;20,00000
901,60200;88,17876; 27,23981;20,00000;20,00000
902,62568;88,27977; 27,07236;20,00000;20,00000
903,64038;88,38078; 26,90579;20,00000;20,00000
904,64344;88,48178; 26,73727;20,00000;20,00000
905,65678;88,58279; 26,56800;20,00000;20,00000
906,65970;88,68379; 26,40170;20,00000;20,00000
907,68554;88,78480; 26,22883;20,00000;20,00000
908,68843;88,88581; 26,05050;20,00000;20,00000
909,71607;88,98681; 25,86355;20,00000;20,00000
910,71675;89,08782; 25,67677;20,00000;20,00000
911,73563;89,18883; 25,50046;20,00000;20,00000
912,74233;89,28983; 25,31749;20,00000;20,00000
913,75896;89,39084; 25,14219;20,00000;20,00000
914,76088;89,49185; 24,95798;20,00000;20,00000
915,76510;89,59285; 24,76810;20,00000;20,00000
916,79030;89,69386; 24,58121;20,00000;20,00000
917,79281;89,79487; 24,38429;20,00000;20,00000
918,80918;89,89587; 24,18573;20,00000;20,00000
919,82014;89,99688; 23,99927;20,00000;20,00000
920,83520;90,09789; 23,79728;20,00000;20,00000
921,83379;90,19889; 23,59761;20,00000;20,00000
922,84698;90,29990; 23,39537;20,00000;20,00000
923,86102;90,40091; 23,19574;20,00000;20,00000
924,86151;90,50191; 22,98751;20,00000;20,00000
925,87684;90,60292; 22,77445;20,00000;20,00000
926,88243;90,70393; 22,52230;20,00000;20,00000
927,88989;90,80493; 22,28269;20,00000;20,00000
928,91266;90,90594; 22,07746;20,00000;20,00000
929,92010;91,00695; 21,88673;20,00000;20,00000
930,93892;91,10795; 21,66519;20,00000;20,00000
931,94038;91,20896; 21,43141;20,00000;20,00000
932,96165;91,30997; 21,16864;20,00000;20,00000
933,95637;91,41097; 20,96927;20,00000;20,00000
934,98760;91,51198; 20,75438;20,00000;20,00000
935,99912;91,61299; 20,50067;20,00000;20,00000
936,99611;91,71399; 20,20163;20,00000;20,00000
938,00706;91,81500; 19,98994;20,00000;20,00000
939,01973;91,91601; 19,78902;20,00000;20,00000
940,02542;92,01701; 19,56812;20,00000;20,00000
941,03921;92,11802; 19,28150;20,00000;20,00000
942,04712;92,21903; 19,02561;20,00000;20,00000
943,05230;92,32003; 18,82236;20,00000;20,00000
944,07451;92,42104; 18,56628;20,00000;20,00000
945,07658;92,52205; 18,26369;20,00000;20,00000
946,08937;92,62305; 18,02243;20,00000;20,00000
947,10692;92,72406; 17,77437;20,00000;20,00000
948,11149;92,82507; 17,51791;20,00000;20,00000
949,12678;92,92607; 17,25492;20,00000;20,00000
950,13501;93,02708; 16,96777;20,00000;20,00000
951,13955;93,12809; 16,68189;20,00000;20,00000
952,16065;93,22909; 16,39130;20,00000;20,00000
953,17894;93,33010; 16,14853;20,00000;20,00000
954,18236;93,43111; 15,86610;20,00000;20,00000
955,18632;93,53211; 15,57977;20,00000;20,00000
956,19885;93,63312; 15,34683;20,00000;20,00000
957,20935;93,73412; 15,08067;20,00000;20,00000
958,22409;93,83513; 14,78867;20,00000;20,00000
959,23209;93,93614; 14,57520;20,00000;20,00000
960,24428;94,03714; 14,34380;20,00000;20,00000
961,25446;94,13815; 14,11910;20,00000;20,00000
962,27405;94,23916; 13,88117;20,00000;20,00000
963,29047;94,34016; 13,66217;20,00000;20,00000
964,28536;94,44117; 13,47789;20,00000;20,00000
965,29867;94,54218; 13,29448;20,00000;20,00000
966,30001;94,64318; 13,11584;20,00000;20,00000
967,31489;94,74419; 12,94266;20,00000;20,00000
968,32155;94,84520; 12,78038;20,00000;20,00000
969,33737;94,94620; 12,62717;20,00000;20,00000
970,34521;95,04721; 12,46786;20,00000;20,00000
971,34689;95,14822; 12,32614;20,00000;20,00000
972,35446;95,24922; 12,20213;20,00000;20,00000
973,37345;95,35023; 12,08830;20,00000;20,00000
974,38045;95,45124; 11,97806;20,00000;20,00000
975,39448;95,55224; 11,87528;20,00000;20,00000
976,39789;95,65325; 11,78017;20,00000;20,00000
977,40973;95,75426; 11,67642;20,00000;20,00000
978,42261;95,85526; 11,58789;20,00000;20,00000
979,43060;95,95627; 11,49934;20,00000;20,00000
980,43756;96,05728; 11,42771;20,00000;20,00000
981,44424;96,15828; 11,35614;20,00000;20,00000
982,44846;96,25929; 11,28902;20,00000;20,00000
983,47379;96,36030; 11,22615;20,00000;20,00000
984,47996;96,46130; 11,16840;20,00000;20,00000
985,49090;96,56231; 11,10866;20,00000;20,00000
986,49223;96,66332; 11,05071;20,00000;20,00000
987,50887;96,76432; 10,99760;20,00000;20,00000
988,51606;96,86533; 10,95595;20,00000;20,00000
989,52752;96,96634; 10,91750;20,00000;20,00000
990,53243;97,06734; 10,87261;20,00000;20,00000
991,54918;97,16835; 10,83284;20,00000;20,00000
992,58174;97,26936; 10,79026;20,00000;20,00000
993,57169;97,37036; 10,74068;20,00000;20,00000
994,57781;97,47137; 10,70978;20,00000;20,00000
995,56766;97,57238; 10,67603;20,00000;20,00000
996,59210;97,67338; 10,63888;20,00000;20,00000
997,60359;97,77439; 10,60638;20,00000;20,00000
998,61328;97,87540; 10,58058;20,00000;20,00000
999,63560;97,97640; 10,56059;20,00000;20,00000