File: TGA/HCS@MoS2 (3).txt
##Temp./oC	Time/min	Mass/%	Gas Flow(purge1)/(ml/min)	Gas Flow(protective)/(ml/min)
25,208	0	100	20	20
25,18225	0,10101	99,99173	20	20
25,13637	0,20201	99,9843	20	20
25,13612	0,30302	99,96781	20	20
25,15427	0,40403	99,95718	20	20
25,27029	0,50503	99,96418	20	20
25,43774	0,60604	99,95641	20	20
25,67734	0,70705	99,93774	20	20
25,9856	0,80805	99,93432	20	20
26,35029	0,90906	99,92522	20	20
26,79434	1,01007	99,92555	20	20
27,30916	1,11107	99,92231	20	20
27,85812	1,21208	99,90713	20	20
28,49678	1,31309	99,89642	20	20
29,17218	1,41409	99,86853	20	20
29,90869	1,5151	99,85047	20	20
30,68101	1,61611	99,84362	20	20
31,51474	1,71711	99,83868	20	20
32,40112	1,81812	99,83462	20	20
33,32522	1,91913	99,8189	20	20
34,27231	2,02013	99,80751	20	20
35,28462	2,12114	99,77783	20	20
36,29788	2,22215	99,77235	20	20
37,38315	2,32315	99,76389	20	20
38,48529	2,42416	99,75186	20	20
39,59097	2,52516	99,73038	20	20
40,74579	2,62617	99,71435	20	20
41,92745	2,72718	99,69193	20	20
43,09341	2,82818	99,67188	20	20
44,30892	2,92919	99,65049	20	20
45,54418	3,0302	99,61096	20	20
46,7593	3,1312	99,57117	20	20
48,00551	3,23221	99,53485	20	20
49,2448	3,33322	99,49042	20	20
50,49271	3,43422	99,45176	20	20
51,77074	3,53523	99,40391	20	20
53,0069	3,63624	99,35833	20	20
54,25878	3,73724	99,30886	20	20
55,50235	3,83825	99,25824	20	20
56,73859	3,93926	99,19458	20	20
57,96628	4,04026	99,13343	20	20
59,20463	4,14127	99,06993	20	20
60,40781	4,24228	99,0003	20	20
61,62408	4,34328	98,92179	20	20
62,81383	4,44429	98,83856	20	20
63,98874	4,5453	98,74407	20	20
65,18045	4,6463	98,66153	20	20
66,34952	4,74731	98,57699	20	20
67,48996	4,84832	98,49561	20	20
68,64763	4,94932	98,40946	20	20
69,76238	5,05033	98,31751	20	20
70,86866	5,15134	98,20188	20	20
71,98281	5,25234	98,11062	20	20
73,09043	5,35335	98,02606	20	20
74,16535	5,45436	97,93832	20	20
75,24314	5,55536	97,83712	20	20
76,30389	5,65637	97,72913	20	20
77,34149	5,75738	97,62262	20	20
78,39553	5,85838	97,51768	20	20
79,44446	5,95939	97,411	20	20
80,45146	6,0604	97,30702	20	20
81,4845	6,1614	97,19992	20	20
82,50309	6,26241	97,10198	20	20
83,49926	6,36342	97,00491	20	20
84,49877	6,46442	96,90786	20	20
85,52491	6,56543	96,80489	20	20
86,5201	6,66644	96,69689	20	20
87,50042	6,76744	96,59826	20	20
88,53041	6,86845	96,4974	20	20
89,50495	6,96946	96,39544	20	20
90,50964	7,07046	96,29836	20	20
91,49792	7,17147	96,20613	20	20
92,4943	7,27248	96,11668	20	20
93,50384	7,37348	96,02291	20	20
94,48766	7,47449	95,93308	20	20
95,4784	7,57549	95,83852	20	20
96,49647	7,6765	95,74378	20	20
97,49226	7,77751	95,6524	20	20
98,47256	7,87851	95,55223	20	20
99,47829	7,97952	95,45943	20	20
100,44292	8,08053	95,35559	20	20
101,45795	8,18153	95,28139	20	20
102,46393	8,28254	95,20135	20	20
103,44912	8,38355	95,1357	20	20
104,45104	8,48455	95,07146	20	20
105,43666	8,58556	95,0055	20	20
106,44162	8,68657	94,93402	20	20
107,43411	8,78757	94,86424	20	20
108,44155	8,88858	94,79576	20	20
109,4322	8,98959	94,73404	20	20
110,42307	9,09059	94,66955	20	20
111,4253	9,1916	94,60167	20	20
112,428	9,29261	94,5394	20	20
113,43598	9,39361	94,48209	20	20
114,43246	9,49462	94,43001	20	20
115,45442	9,59563	94,36511	20	20
116,44607	9,69663	94,30937	20	20
117,43359	9,79764	94,25826	20	20
118,43651	9,89865	94,22002	20	20
119,45466	9,99965	94,17025	20	20
120,45946	10,10066	94,12914	20	20
121,46845	10,20167	94,08971	20	20
122,47635	10,30267	94,0586	20	20
123,48211	10,40368	94,02598	20	20
124,49003	10,50469	93,99436	20	20
125,4942	10,60569	93,95564	20	20
126,5196	10,7067	93,9193	20	20
127,52252	10,80771	93,8922	20	20
128,54435	10,90871	93,86949	20	20
129,56402	11,00972	93,83795	20	20
130,57694	11,11073	93,83285	20	20
131,59332	11,21173	93,80766	20	20
132,62197	11,31274	93,77915	20	20
133,63352	11,41375	93,75517	20	20
134,6516	11,51475	93,7388	20	20
135,68439	11,61576	93,72065	20	20
136,6994	11,71677	93,70001	20	20
137,72176	11,81777	93,68092	20	20
138,7535	11,91878	93,65371	20	20
139,76893	12,01979	93,63475	20	20
140,78611	12,12079	93,6182	20	20
141,79417	12,2218	93,60243	20	20
142,83691	12,32281	93,57791	20	20
143,83649	12,42381	93,56329	20	20
144,86885	12,52482	93,55273	20	20
145,88823	12,62583	93,54071	20	20
146,91502	12,72683	93,51893	20	20
147,92665	12,82784	93,50798	20	20
148,95107	12,92884	93,49239	20	20
149,96235	13,02985	93,47584	20	20
150,96625	13,13086	93,44864	20	20
151,9825	13,23186	93,43962	20	20
153,00707	13,33287	93,4254	20	20
154,01335	13,43388	93,4165	20	20
155,0324	13,53488	93,40394	20	20
156,04214	13,63589	93,38996	20	20
157,05275	13,7369	93,37958	20	20
158,07301	13,8379	93,37136	20	20
159,07138	13,93891	93,36049	20	20
160,07111	14,03992	93,35299	20	20
161,07711	14,14092	93,34458	20	20
162,08629	14,24193	93,32337	20	20
163,09402	14,34294	93,31915	20	20
164,10593	14,44394	93,30929	20	20
165,10312	14,54495	93,30181	20	20
166,11845	14,64596	93,29272	20	20
167,13655	14,74696	93,28829	20	20
168,1431	14,84797	93,28597	20	20
169,13508	14,94898	93,27771	20	20
170,14684	15,04998	93,27192	20	20
171,1591	15,15099	93,26864	20	20
172,14743	15,252	93,26693	20	20
173,16567	15,353	93,26206	20	20
174,1751	15,45401	93,25427	20	20
175,17321	15,55502	93,24346	20	20
176,19125	15,65602	93,23333	20	20
177,18402	15,75703	93,21928	20	20
178,20292	15,85804	93,20428	20	20
179,21388	15,95904	93,19335	20	20
180,22143	16,06005	93,18347	20	20
181,23796	16,16106	93,17684	20	20
182,23848	16,26206	93,1702	20	20
183,26678	16,36307	93,16259	20	20
184,27229	16,46408	93,15195	20	20
185,28146	16,56508	93,14908	20	20
186,30418	16,66609	93,14819	20	20
187,32148	16,7671	93,14662	20	20
188,34301	16,8681	93,14512	20	20
189,35613	16,96911	93,14011	20	20
190,39123	17,07012	93,13679	20	20
191,39496	17,17112	93,13347	20	20
192,40973	17,27213	93,11874	20	20
193,4355	17,37314	93,10934	20	20
194,44623	17,47414	93,09806	20	20
195,46899	17,57515	93,07044	20	20
196,4804	17,67616	93,05694	20	20
197,50174	17,77716	93,05103	20	20
198,50617	17,87817	93,05081	20	20
199,52792	17,97917	93,05003	20	20
200,55997	18,08018	93,04261	20	20
201,566	18,18119	93,03604	20	20
202,57525	18,28219	93,02852	20	20
203,59001	18,3832	93,01856	20	20
204,60044	18,48421	93,00354	20	20
205,62015	18,58521	92,98658	20	20
206,6173	18,68622	92,97271	20	20
207,6451	18,78723	92,95708	20	20
208,64106	18,88823	92,94462	20	20
209,6821	18,98924	92,93216	20	20
210,68251	19,09025	92,92141	20	20
211,6954	19,19125	92,90818	20	20
212,71897	19,29226	92,89167	20	20
213,72074	19,39327	92,87443	20	20
214,71855	19,49427	92,86034	20	20
215,72669	19,59528	92,83743	20	20
216,73577	19,69629	92,82209	20	20
217,741	19,79729	92,80868	20	20
218,75112	19,8983	92,79541	20	20
219,75406	19,99931	92,78393	20	20
220,77445	20,10031	92,77481	20	20
221,78515	20,20132	92,75091	20	20
222,79543	20,30233	92,73533	20	20
223,80153	20,40333	92,72024	20	20
224,82332	20,50434	92,70452	20	20
225,84172	20,60535	92,68011	20	20
226,84719	20,70635	92,66185	20	20
227,83912	20,80736	92,63891	20	20
228,85631	20,90837	92,60739	20	20
229,86722	21,00937	92,57602	20	20
230,86586	21,11038	92,55202	20	20
231,89655	21,21139	92,52332	20	20
232,89419	21,31239	92,49433	20	20
233,90718	21,4134	92,46843	20	20
234,92179	21,51441	92,44913	20	20
235,93763	21,61541	92,4241	20	20
236,94258	21,71642	92,39282	20	20
237,97946	21,81743	92,36684	20	20
238,97474	21,91843	92,32877	20	20
239,98856	22,01944	92,30009	20	20
240,99948	22,12045	92,25958	20	20
242,00774	22,22145	92,22065	20	20
243,02342	22,32246	92,17952	20	20
244,03242	22,42347	92,14576	20	20
245,04184	22,52447	92,10843	20	20
246,0514	22,62548	92,07817	20	20
247,05594	22,72648	92,04643	20	20
248,06485	22,82749	92,00752	20	20
249,0872	22,9285	91,96948	20	20
250,0883	23,0295	91,93061	20	20
251,09775	23,13051	91,89517	20	20
252,10497	23,23152	91,85511	20	20
253,11267	23,33252	91,81521	20	20
254,12453	23,43353	91,76801	20	20
255,13972	23,53454	91,71525	20	20
256,15227	23,63554	91,66976	20	20
257,15585	23,73655	91,61427	20	20
258,17274	23,83756	91,56668	20	20
259,17455	23,93856	91,51358	20	20
260,18551	24,03957	91,45661	20	20
261,18535	24,14058	91,40048	20	20
262,20276	24,24158	91,33498	20	20
263,2049	24,34259	91,28951	20	20
264,20638	24,4436	91,22654	20	20
265,21943	24,5446	91,16868	20	20
266,21868	24,64561	91,1073	20	20
267,23108	24,74662	91,0518	20	20
268,23736	24,84762	90,99304	20	20
269,24976	24,94863	90,93028	20	20
270,25753	25,04964	90,86464	20	20
271,27231	25,15064	90,79844	20	20
272,28599	25,25165	90,7366	20	20
273,29806	25,35266	90,66986	20	20
274,29804	25,45366	90,6007	20	20
275,33604	25,55467	90,53695	20	20
276,33294	25,65568	90,4733	20	20
277,34813	25,75668	90,40827	20	20
278,35937	25,85769	90,32571	20	20
279,3794	25,9587	90,264	20	20
280,39219	26,0597	90,18732	20	20
281,39976	26,16071	90,11529	20	20
282,41028	26,26172	90,04373	20	20
283,43522	26,36272	89,97011	20	20
284,43609	26,46373	89,90066	20	20
285,44543	26,56474	89,82564	20	20
286,46718	26,66574	89,73774	20	20
287,46415	26,76675	89,65801	20	20
288,4872	26,86776	89,57482	20	20
289,48741	26,96876	89,49995	20	20
290,49078	27,06977	89,41334	20	20
291,5005	27,17078	89,33431	20	20
292,51279	27,27178	89,2505	20	20
293,50187	27,37279	89,17321	20	20
294,51986	27,4738	89,10633	20	20
295,53616	27,5748	89,02613	20	20
296,52518	27,67581	88,94853	20	20
297,54366	27,77681	88,8656	20	20
298,5365	27,87782	88,79931	20	20
299,53287	27,97883	88,72057	20	20
300,5393	28,07983	88,63382	20	20
301,53569	28,18084	88,53932	20	20
302,53087	28,28185	88,45577	20	20
303,53314	28,38285	88,36989	20	20
304,54415	28,48386	88,28814	20	20
305,5343	28,58487	88,19812	20	20
306,54475	28,68587	88,10848	20	20
307,54578	28,78688	88,01773	20	20
308,55626	28,88789	87,91999	20	20
309,56817	28,98889	87,83657	20	20
310,57795	29,0899	87,75669	20	20
311,59658	29,19091	87,67907	20	20
312,60083	29,29191	87,58125	20	20
313,62492	29,39292	87,49833	20	20
314,62259	29,49393	87,41101	20	20
315,64736	29,59493	87,31289	20	20
316,66524	29,69594	87,2112	20	20
317,68101	29,79695	87,11117	20	20
318,7153	29,89795	87,01209	20	20
319,72497	29,99896	86,91044	20	20
320,76668	30,09997	86,82312	20	20
321,77837	30,20097	86,72728	20	20
322,79118	30,30198	86,6238	20	20
323,81169	30,40299	86,53481	20	20
324,82608	30,50399	86,43068	20	20
325,84236	30,605	86,32995	20	20
326,86099	30,70601	86,2351	20	20
327,87484	30,80701	86,13029	20	20
328,8847	30,90802	86,01986	20	20
329,89432	31,00903	85,91945	20	20
330,89929	31,11003	85,8035	20	20
331,89547	31,21104	85,70131	20	20
332,90824	31,31205	85,59447	20	20
333,89156	31,41305	85,4936	20	20
334,90777	31,51406	85,392	20	20
335,90805	31,61507	85,28417	20	20
336,91896	31,71607	85,18516	20	20
337,92194	31,81708	85,06518	20	20
338,93926	31,91809	84,952	20	20
339,94732	32,01909	84,82905	20	20
340,953	32,1201	84,71345	20	20
341,97103	32,22111	84,59917	20	20
342,9779	32,32211	84,48005	20	20
343,98437	32,42312	84,35217	20	20
344,99104	32,52413	84,22107	20	20
346,00083	32,62513	84,09221	20	20
347,00437	32,72614	83,97618	20	20
348,02746	32,82714	83,85828	20	20
349,01692	32,92815	83,7431	20	20
350,01989	33,02916	83,62071	20	20
351,01473	33,13016	83,49477	20	20
352,03758	33,23117	83,35802	20	20
353,03631	33,33218	83,21231	20	20
354,037	33,43318	83,06828	20	20
355,04767	33,53419	82,91792	20	20
356,05405	33,6352	82,77372	20	20
357,04721	33,7362	82,64185	20	20
358,05065	33,83721	82,49954	20	20
359,06411	33,93822	82,35733	20	20
360,08419	34,03922	82,19458	20	20
361,08724	34,14023	82,0485	20	20
362,08945	34,24124	81,91613	20	20
363,10077	34,34224	81,78165	20	20
364,1042	34,44325	81,63174	20	20
365,11526	34,54426	81,48028	20	20
366,12988	34,64526	81,34046	20	20
367,12648	34,74627	81,19052	20	20
368,12326	34,84728	81,04693	20	20
369,14583	34,94828	80,91277	20	20
370,15703	35,04929	80,76696	20	20
371,18196	35,1503	80,61455	20	20
372,18628	35,2513	80,46989	20	20
373,19395	35,35231	80,33991	20	20
374,21512	35,45332	80,21247	20	20
375,23224	35,55432	80,0655	20	20
376,2367	35,65533	79,91123	20	20
377,2476	35,75634	79,76103	20	20
378,26934	35,85734	79,6188	20	20
379,27709	35,95835	79,47416	20	20
380,28772	36,05936	79,3305	20	20
381,29572	36,16036	79,18293	20	20
382,32242	36,26137	79,03669	20	20
383,33391	36,36238	78,89636	20	20
384,34532	36,46338	78,75494	20	20
385,35976	36,56439	78,60501	20	20
386,37084	36,6654	78,46898	20	20
387,36856	36,7664	78,32958	20	20
388,36699	36,86741	78,19325	20	20
389,37138	36,96842	78,03953	20	20
390,38601	37,06942	77,90066	20	20
391,40016	37,17043	77,75147	20	20
392,39637	37,27144	77,62969	20	20
393,42587	37,37244	77,49256	20	20
394,42437	37,47345	77,34551	20	20
395,43089	37,57446	77,20669	20	20
396,44852	37,67546	77,05927	20	20
397,47164	37,77647	76,92121	20	20
398,46584	37,87748	76,78127	20	20
399,48142	37,97848	76,64263	20	20
400,4862	38,07949	76,50084	20	20
401,50597	38,18049	76,36745	20	20
402,51918	38,2815	76,23445	20	20
403,52234	38,38251	76,09572	20	20
404,54299	38,48351	75,94641	20	20
405,5396	38,58452	75,79676	20	20
406,55518	38,68553	75,64664	20	20
407,5611	38,78653	75,50741	20	20
408,57615	38,88754	75,36271	20	20
409,58282	38,98855	75,21515	20	20
410,60247	39,08955	75,07485	20	20
411,61768	39,19056	74,92836	20	20
412,61634	39,29157	74,78203	20	20
413,63166	39,39257	74,63139	20	20
414,65135	39,49358	74,48987	20	20
415,6574	39,59459	74,33746	20	20
416,66281	39,69559	74,19429	20	20
417,6712	39,7966	74,04836	20	20
418,70152	39,89761	73,90819	20	20
419,71061	39,99861	73,77819	20	20
420,71445	40,09962	73,64913	20	20
421,73644	40,20063	73,50636	20	20
422,74576	40,30163	73,3465	20	20
423,75172	40,40264	73,1962	20	20
424,76605	40,50365	73,05546	20	20
425,77684	40,60465	72,91075	20	20
426,78376	40,70566	72,76388	20	20
427,79542	40,80667	72,62424	20	20
428,78838	40,90767	72,47992	20	20
429,80084	41,00868	72,33679	20	20
430,81284	41,10969	72,18326	20	20
431,8213	41,21069	72,04285	20	20
432,83163	41,3117	71,8895	20	20
433,84208	41,41271	71,7527	20	20
434,84353	41,51371	71,61222	20	20
435,84786	41,61472	71,46882	20	20
436,84943	41,71573	71,30784	20	20
437,85583	41,81673	71,15098	20	20
438,85539	41,91774	71,0015	20	20
439,86647	42,01875	70,84128	20	20
440,86853	42,11975	70,69599	20	20
441,89005	42,22076	70,54486	20	20
442,89041	42,32177	70,38872	20	20
443,89809	42,42277	70,24146	20	20
444,90959	42,52378	70,09323	20	20
445,92299	42,62479	69,92713	20	20
446,91653	42,72579	69,76466	20	20
447,92249	42,8268	69,6052	20	20
448,93237	42,92781	69,45384	20	20
449,94768	43,02881	69,28832	20	20
450,94717	43,12982	69,12614	20	20
451,95922	43,23082	68,9646	20	20
452,98358	43,33183	68,80201	20	20
453,97332	43,43284	68,64478	20	20
454,9933	43,53384	68,48306	20	20
456,0016	43,63485	68,32618	20	20
457,0157	43,73586	68,16914	20	20
458,02531	43,83686	68,01212	20	20
459,05126	43,93787	67,86301	20	20
460,04915	44,03888	67,70593	20	20
461,06489	44,13988	67,53652	20	20
462,0716	44,24089	67,37429	20	20
463,09187	44,3419	67,21017	20	20
464,09223	44,4429	67,05328	20	20
465,10434	44,54391	66,89268	20	20
466,11563	44,64492	66,72222	20	20
467,13918	44,74592	66,55862	20	20
468,14967	44,84693	66,40164	20	20
469,15713	44,94794	66,24395	20	20
470,16757	45,04894	66,08785	20	20
471,18448	45,14995	65,9199	20	20
472,19568	45,25096	65,75122	20	20
473,20003	45,35196	65,5915	20	20
474,22387	45,45297	65,43648	20	20
475,23881	45,55398	65,2788	20	20
476,24373	45,65498	65,11936	20	20
477,25269	45,75599	64,95763	20	20
478,27546	45,857	64,78798	20	20
479,26819	45,958	64,6245	20	20
480,28686	46,05901	64,46271	20	20
481,29416	46,16002	64,29674	20	20
482,298	46,26102	64,13135	20	20
483,30267	46,36203	63,97347	20	20
484,32097	46,46304	63,80489	20	20
485,31892	46,56404	63,63341	20	20
486,33435	46,66505	63,4705	20	20
487,34567	46,76606	63,31128	20	20
488,35196	46,86706	63,15436	20	20
489,35424	46,96807	62,98652	20	20
490,36683	47,06908	62,82249	20	20
491,37782	47,17008	62,66128	20	20
492,38932	47,27109	62,49152	20	20
493,38261	47,3721	62,31812	20	20
494,42319	47,4731	62,15673	20	20
495,41838	47,57411	61,98669	20	20
496,43574	47,67512	61,81406	20	20
497,43933	47,77612	61,64391	20	20
498,45585	47,87713	61,46932	20	20
499,45552	47,97814	61,29728	20	20
500,46775	48,07914	61,11834	20	20
501,48446	48,18015	60,94646	20	20
502,48588	48,28115	60,76469	20	20
503,49414	48,38216	60,58451	20	20
504,51999	48,48317	60,41651	20	20
505,5219	48,58417	60,24037	20	20
506,52189	48,68518	60,05511	20	20
507,54205	48,78619	59,87297	20	20
508,56683	48,88719	59,69797	20	20
509,5711	48,9882	59,53239	20	20
510,5897	49,08921	59,35541	20	20
511,60703	49,19021	59,18149	20	20
512,6267	49,29122	58,99868	20	20
513,62336	49,39223	58,80793	20	20
514,64266	49,49323	58,62162	20	20
515,65866	49,59424	58,45054	20	20
516,66049	49,69525	58,26422	20	20
517,66228	49,79625	58,08218	20	20
518,67285	49,89726	57,8984	20	20
519,67905	49,99827	57,7155	20	20
520,6947	50,09927	57,5341	20	20
521,69783	50,20028	57,35863	20	20
522,70389	50,30129	57,16898	20	20
523,71296	50,40229	56,98819	20	20
524,72751	50,5033	56,80325	20	20
525,72777	50,60431	56,61829	20	20
526,7346	50,70531	56,44467	20	20
527,74428	50,80632	56,26377	20	20
528,74662	50,90733	56,07907	20	20
529,74999	51,00833	55,89758	20	20
530,76183	51,10934	55,72103	20	20
531,77064	51,21035	55,54871	20	20
532,77888	51,31135	55,37191	20	20
533,78544	51,41236	55,19429	20	20
534,78686	51,51337	55,02133	20	20
535,80779	51,61437	54,84786	20	20
536,81076	51,71538	54,67938	20	20
537,82536	51,81639	54,50994	20	20
538,83758	51,91739	54,3369	20	20
539,86022	52,0184	54,16385	20	20
540,86399	52,11941	53,99496	20	20
541,88384	52,22041	53,82985	20	20
542,89317	52,32142	53,67436	20	20
543,91498	52,42243	53,5154	20	20
544,92345	52,52343	53,35105	20	20
545,93749	52,62444	53,19045	20	20
546,93744	52,72545	53,02549	20	20
547,95191	52,82645	52,8766	20	20
548,96073	52,92746	52,72064	20	20
549,97111	53,02847	52,5671	20	20
551,00461	53,12947	52,41602	20	20
552,00366	53,23048	52,27186	20	20
552,98396	53,33148	52,10928	20	20
553,99313	53,43249	51,96691	20	20
555,00282	53,5335	51,82471	20	20
556,0246	53,6345	51,67665	20	20
557,02955	53,73551	51,53736	20	20
558,04898	53,83652	51,39561	20	20
559,05861	53,93752	51,28055	20	20
560,06783	54,03853	51,11901	20	20
561,09165	54,13954	50,96046	20	20
562,0991	54,24054	50,81475	20	20
563,1227	54,34155	50,67123	20	20
564,1413	54,44256	50,52107	20	20
565,1798	54,54356	50,38698	20	20
566,19125	54,64457	50,26466	20	20
567,21725	54,74558	50,12696	20	20
568,23776	54,84658	49,99884	20	20
569,2465	54,94759	49,86979	20	20
570,26378	55,0486	49,74684	20	20
571,28802	55,1496	49,60806	20	20
572,29256	55,25061	49,46565	20	20
573,3051	55,35162	49,33368	20	20
574,31538	55,45262	49,20767	20	20
575,32505	55,55363	49,07097	20	20
576,33353	55,65464	48,94812	20	20
577,33787	55,75564	48,82579	20	20
578,33427	55,85665	48,71001	20	20
579,33898	55,95766	48,58838	20	20
580,35358	56,05866	48,46058	20	20
581,34982	56,15967	48,34008	20	20
582,35731	56,26068	48,22273	20	20
583,35278	56,36168	48,08913	20	20
584,35859	56,46269	47,96425	20	20
585,39052	56,5637	47,83702	20	20
586,39561	56,6647	47,72675	20	20
587,41049	56,76571	47,62002	20	20
588,40698	56,86672	47,50357	20	20
589,415	56,96772	47,39347	20	20
590,42134	57,06873	47,26264	20	20
591,43045	57,16974	47,15335	20	20
592,43707	57,27074	47,03946	20	20
593,46333	57,37175	46,93343	20	20
594,47588	57,47276	46,81186	20	20
595,48607	57,57376	46,69936	20	20
596,50055	57,67477	46,58769	20	20
597,50971	57,77578	46,46675	20	20
598,53741	57,87678	46,35325	20	20
599,54843	57,97779	46,2371	20	20
600,55824	58,0788	46,1082	20	20
601,57485	58,1798	45,98145	20	20
602,58719	58,28081	45,85847	20	20
603,59766	58,38181	45,7477	20	20
604,60963	58,48282	45,63583	20	20
605,62039	58,58383	45,5274	20	20
606,62853	58,68483	45,41393	20	20
607,64545	58,78584	45,29992	20	20
608,64663	58,88685	45,18606	20	20
609,65546	58,98785	45,07261	20	20
610,65287	59,08886	44,95751	20	20
611,66263	59,18987	44,84068	20	20
612,66872	59,29087	44,71671	20	20
613,68264	59,39188	44,6065	20	20
614,68714	59,49289	44,49079	20	20
615,68974	59,59389	44,35726	20	20
616,69702	59,6949	44,22415	20	20
617,70864	59,79591	44,10138	20	20
618,70555	59,89691	43,98872	20	20
619,71855	59,99792	43,88043	20	20
620,72914	60,09893	43,77362	20	20
621,74637	60,19993	43,65645	20	20
622,75141	60,30094	43,5385	20	20
623,75875	60,40195	43,42091	20	20
624,76754	60,50295	43,31146	20	20
625,77712	60,60396	43,20087	20	20
626,78653	60,70497	43,08015	20	20
627,78963	60,80597	42,97659	20	20
628,80302	60,90698	42,86027	20	20
629,80479	61,00799	42,72987	20	20
630,8147	61,10899	42,59647	20	20
631,82598	61,21	42,48454	20	20
632,83469	61,31101	42,38229	20	20
633,84052	61,41201	42,26953	20	20
634,85018	61,51302	42,16711	20	20
635,86712	61,61403	42,05336	20	20
636,87965	61,71503	41,94587	20	20
637,88731	61,81604	41,83301	20	20
638,89579	61,91705	41,72973	20	20
639,90953	62,01805	41,62348	20	20
640,93766	62,11906	41,51393	20	20
641,94365	62,22007	41,40841	20	20
642,95431	62,32107	41,30271	20	20
643,97088	62,42208	41,19401	20	20
644,98932	62,52309	41,08878	20	20
645,99487	62,62409	40,97365	20	20
647,01372	62,7251	40,86471	20	20
648,03335	62,82611	40,75482	20	20
649,02988	62,92711	40,64542	20	20
650,05314	63,02812	40,53027	20	20
651,06085	63,12913	40,41907	20	20
652,0714	63,23013	40,30368	20	20
653,0843	63,33114	40,19206	20	20
654,08945	63,43214	40,08264	20	20
655,10344	63,53315	39,97309	20	20
656,10524	63,63416	39,86229	20	20
657,11393	63,73516	39,74792	20	20
658,12667	63,83617	39,62358	20	20
659,1254	63,93718	39,5054	20	20
660,13292	64,03818	39,39478	20	20
661,13931	64,13919	39,28789	20	20
662,15714	64,2402	39,18	20	20
663,15874	64,3412	39,0741	20	20
664,16415	64,44221	38,96082	20	20
665,17406	64,54322	38,84833	20	20
666,18536	64,64422	38,7362	20	20
667,18801	64,74523	38,62847	20	20
668,20022	64,84624	38,52245	20	20
669,20466	64,94724	38,42209	20	20
670,22709	65,04825	38,31329	20	20
671,2154	65,14926	38,20179	20	20
672,23661	65,25026	38,0934	20	20
673,24902	65,35127	37,98333	20	20
674,25536	65,45228	37,88616	20	20
675,27049	65,55328	37,7837	20	20
676,30434	65,65429	37,66973	20	20
677,2865	65,7553	37,57608	20	20
678,28679	65,8563	37,46484	20	20
679,31737	65,95731	37,3525	20	20
680,33184	66,05832	37,24967	20	20
681,34357	66,15932	37,14266	20	20
682,3581	66,26033	37,03351	20	20
683,37612	66,36134	36,92181	20	20
684,37563	66,46234	36,82501	20	20
685,4058	66,56335	36,72383	20	20
686,4186	66,66436	36,62421	20	20
687,41398	66,76536	36,52442	20	20
688,43414	66,86637	36,42996	20	20
689,45461	66,96738	36,35534	20	20
690,47695	67,06838	36,30365	20	20
691,49487	67,16939	36,26129	20	20
692,47743	67,2704	36,23627	20	20
693,43186	67,3714	36,25083	20	20
694,38543	67,47241	36,345	20	20
695,33166	67,57342	36,50193	20	20
696,29785	67,67442	36,66736	20	20
697,26668	67,77543	36,81054	20	20
698,23813	67,87644	36,89694	20	20
699,22395	67,97744	36,95974	20	20
700,22324	68,07845	37,01364	20	20
701,20451	68,17946	37,05812	20	20
702,20352	68,28046	37,09959	20	20
703,21565	68,38147	37,13644	20	20
704,24289	68,48247	37,16311	20	20
705,2804	68,58348	37,18856	20	20
706,32276	68,68449	37,20753	20	20
707,37476	68,78549	37,21911	20	20
708,41959	68,8865	37,23074	20	20
709,47621	68,98751	37,23838	20	20
710,53332	69,08851	37,24755	20	20
711,58607	69,18952	37,25341	20	20
712,63999	69,29053	37,2534	20	20
713,68985	69,39153	37,25423	20	20
714,72481	69,49254	37,25505	20	20
715,77178	69,59355	37,25506	20	20
716,78932	69,69455	37,25617	20	20
717,81801	69,79556	37,26238	20	20
718,85201	69,89657	37,26476	20	20
719,86427	69,99757	37,26953	20	20
720,87115	70,09858	37,27309	20	20
721,87871	70,19959	37,27552	20	20
722,89218	70,30059	37,27878	20	20
723,89436	70,4016	37,28123	20	20
724,8837	70,50261	37,28205	20	20
725,87835	70,60361	37,28207	20	20
726,88568	70,70462	37,26898	20	20
727,89565	70,80563	37,26727	20	20
728,89347	70,90663	37,26839	20	20
729,88493	71,00764	37,26721	20	20
730,88926	71,10865	37,266	20	20
731,89138	71,20965	37,25588	20	20
732,88875	71,31066	37,25338	20	20
733,89511	71,41167	37,24899	20	20
734,90669	71,51267	37,24284	20	20
735,91822	71,61368	37,24054	20	20
736,92713	71,71469	37,24266	20	20
737,95078	71,81569	37,23991	20	20
738,95697	71,9167	37,23399	20	20
739,97406	72,01771	37,22756	20	20
740,9908	72,11871	37,21828	20	20
742,00808	72,21972	37,21082	20	20
743,02429	72,32073	37,20835	20	20
744,03317	72,42173	37,19678	20	20
745,05736	72,52274	37,19169	20	20
746,06296	72,62375	37,18431	20	20
747,08683	72,72475	37,1756	20	20
748,09075	72,82576	37,16897	20	20
749,10454	72,92677	37,15637	20	20
750,11971	73,02777	37,14248	20	20
751,12518	73,12878	37,1281	20	20
752,12677	73,22979	37,12323	20	20
753,15404	73,33079	37,11244	20	20
754,13802	73,4318	37,10165	20	20
755,1403	73,5328	37,09588	20	20
756,13914	73,63381	37,07947	20	20
757,14333	73,73482	37,06356	20	20
758,15744	73,83582	37,04691	20	20
759,16363	73,93683	37,02959	20	20
760,17229	74,03784	37,01246	20	20
761,18579	74,13884	36,99391	20	20
762,18655	74,23985	36,98156	20	20
763,19036	74,34086	36,96418	20	20
764,20428	74,44186	36,94518	20	20
765,19349	74,54287	36,92825	20	20
766,18455	74,64388	36,91783	20	20
767,18125	74,74488	36,89983	20	20
768,17956	74,84589	36,87418	20	20
769,17627	74,9469	36,85036	20	20
770,19679	75,0479	36,824	20	20
771,21843	75,14891	36,80091	20	20
772,2262	75,24992	36,77518	20	20
773,25242	75,35092	36,75955	20	20
774,26486	75,45193	36,7425	20	20
775,30341	75,55294	36,71766	20	20
776,34899	75,65394	36,68106	20	20
777,3618	75,75495	36,65848	20	20
778,38225	75,85596	36,62492	20	20
779,40027	75,95696	36,58643	20	20
780,42631	76,05797	36,55654	20	20
781,47317	76,15898	36,5217	20	20
782,49483	76,25998	36,48365	20	20
783,50269	76,36099	36,45221	20	20
784,50464	76,462	36,41178	20	20
785,52637	76,563	36,36822	20	20
786,51731	76,66401	36,32758	20	20
787,51782	76,76502	36,2851	20	20
788,509	76,86602	36,24314	20	20
789,51287	76,96703	36,20956	20	20
790,52609	77,06804	36,16881	20	20
791,52195	77,16904	36,11778	20	20
792,50843	77,27005	36,09466	20	20
793,51074	77,37106	36,06067	20	20
794,51955	77,47206	36,01571	20	20
795,52139	77,57307	35,96541	20	20
796,53125	77,67408	35,90827	20	20
797,54949	77,77508	35,86627	20	20
798,54642	77,87609	35,82252	20	20
799,55838	77,9771	35,77719	20	20
800,57032	78,0781	35,73903	20	20
801,59332	78,17911	35,69545	20	20
802,60004	78,28012	35,63438	20	20
803,62691	78,38112	35,58763	20	20
804,63605	78,48213	35,52937	20	20
805,65457	78,58313	35,47115	20	20
806,65533	78,68414	35,4156	20	20
807,68145	78,78515	35,36315	20	20
808,69915	78,88615	35,30557	20	20
809,71187	78,98716	35,24993	20	20
810,71851	79,08817	35,19144	20	20
811,74115	79,18917	35,1349	20	20
812,74785	79,29018	35,08241	20	20
813,75672	79,39119	35,01789	20	20
814,7709	79,49219	34,95294	20	20
815,76444	79,5932	34,88876	20	20
816,78298	79,69421	34,82695	20	20
817,79287	79,79521	34,75861	20	20
818,7906	79,89622	34,69645	20	20
819,79461	79,99723	34,63026	20	20
820,79401	80,09823	34,56179	20	20
821,80772	80,19924	34,50149	20	20
822,81041	80,30025	34,43801	20	20
823,82202	80,40125	34,38724	20	20
824,83337	80,50226	34,32767	20	20
825,83021	80,60327	34,26402	20	20
826,83617	80,70427	34,20015	20	20
827,84956	80,80528	34,13334	20	20
828,87043	80,90629	34,06959	20	20
829,87306	81,00729	34,00061	20	20
830,87899	81,1083	33,91983	20	20
831,89837	81,20931	33,86081	20	20
832,89499	81,31031	33,79577	20	20
833,91789	81,41132	33,73043	20	20
834,93431	81,51233	33,6681	20	20
835,94086	81,61333	33,59859	20	20
836,95797	81,71434	33,54121	20	20
837,96713	81,81535	33,47485	20	20
838,98394	81,91635	33,39135	20	20
840,0054	82,01736	33,33114	20	20
841,00789	82,11837	33,25532	20	20
842,01879	82,21937	33,18026	20	20
843,03375	82,32038	33,11036	20	20
844,03651	82,42139	33,03919	20	20
845,05259	82,52239	32,97209	20	20
846,06233	82,6234	32,90677	20	20
847,07174	82,72441	32,83913	20	20
848,08538	82,82541	32,75504	20	20
849,0913	82,92642	32,6746	20	20
850,0974	83,02743	32,59156	20	20
851,11132	83,12843	32,50718	20	20
852,13048	83,22944	32,4306	20	20
853,13936	83,33045	32,35296	20	20
854,1503	83,43145	32,27575	20	20
855,16092	83,53246	32,20114	20	20
856,1707	83,63346	32,12993	20	20
857,17375	83,73447	32,04715	20	20
858,19082	83,83548	31,96338	20	20
859,19326	83,93648	31,88065	20	20
860,20942	84,03749	31,80382	20	20
861,21873	84,1385	31,72242	20	20
862,22645	84,2395	31,64935	20	20
863,24119	84,34051	31,57616	20	20
864,24305	84,44152	31,49574	20	20
865,25423	84,54252	31,41532	20	20
866,25719	84,64353	31,33669	20	20
867,26449	84,74454	31,25407	20	20
868,27403	84,84554	31,14956	20	20
869,29295	84,94655	31,05363	20	20
870,29895	85,04756	30,95399	20	20
871,30449	85,14856	30,87702	20	20
872,32564	85,24957	30,79003	20	20
873,32777	85,35058	30,70659	20	20
874,34725	85,45158	30,61053	20	20
875,35794	85,55259	30,51848	20	20
876,36407	85,6536	30,43003	20	20
877,37468	85,7546	30,32247	20	20
878,38134	85,85561	30,22757	20	20
879,39797	85,95662	30,11832	20	20
880,40941	86,05762	30,01193	20	20
881,41446	86,15863	29,90397	20	20
882,42645	86,25964	29,79789	20	20
883,43263	86,36064	29,68253	20	20
884,44014	86,46165	29,55538	20	20
885,45081	86,56266	29,4412	20	20
886,46675	86,66366	29,33476	20	20
887,48528	86,76467	29,22571	20	20
888,49126	86,86568	29,10325	20	20
889,4984	86,96668	28,97207	20	20
890,50681	87,06769	28,83702	20	20
891,51773	87,1687	28,70487	20	20
892,539	87,2697	28,56678	20	20
893,54359	87,37071	28,43787	20	20
894,55515	87,47172	28,3111	20	20
895,55928	87,57272	28,16714	20	20
896,56529	87,67373	28,01675	20	20
897,57323	87,77474	27,85913	20	20
898,5911	87,87574	27,69962	20	20
899,60378	87,97675	27,5489	20	20
900,60629	88,07776	27,3944	20	20
901,602	88,17876	27,23981	20	20
902,62568	88,27977	27,07236	20	20
903,64038	88,38078	26,90579	20	20
904,64344	88,48178	26,73727	20	20
905,65678	88,58279	26,568	20	20
906,6597	88,68379	26,4017	20	20
907,68554	88,7848	26,22883	20	20
908,68843	88,88581	26,0505	20	20
909,71607	88,98681	25,86355	20	20
910,71675	89,08782	25,67677	20	20
911,73563	89,18883	25,50046	20	20
912,74233	89,28983	25,31749	20	20
913,75896	89,39084	25,14219	20	20
914,76088	89,49185	24,95798	20	20
915,7651	89,59285	24,7681	20	20
916,7903	89,69386	24,58121	20	20
917,79281	89,79487	24,38429	20	20
918,80918	89,89587	24,18573	20	20
919,82014	89,99688	23,99927	20	20
920,8352	90,09789	23,79728	20	20
921,83379	90,19889	23,59761	20	20
922,84698	90,2999	23,39537	20	20
923,86102	90,40091	23,19574	20	20
924,86151	90,50191	22,98751	20	20
925,87684	90,60292	22,77445	20	20
926,88243	90,70393	22,5223	20	20
927,88989	90,80493	22,28269	20	20
928,91266	90,90594	22,07746	20	20
929,9201	91,00695	21,88673	20	20
930,93892	91,10795	21,66519	20	20
931,94038	91,20896	21,43141	20	20
932,96165	91,30997	21,16864	20	20
933,95637	91,41097	20,96927	20	20
934,9876	91,51198	20,75438	20	20
935,99912	91,61299	20,50067	20	20
936,99611	91,71399	20,20163	20	20
938,00706	91,815	19,98994	20	20
939,01973	91,91601	19,78902	20	20
940,02542	92,01701	19,56812	20	20
941,03921	92,11802	19,2815	20	20
942,04712	92,21903	19,02561	20	20
943,0523	92,32003	18,82236	20	20
944,07451	92,42104	18,56628	20	20
945,07658	92,52205	18,26369	20	20
946,08937	92,62305	18,02243	20	20
947,10692	92,72406	17,77437	20	20
948,11149	92,82507	17,51791	20	20
949,12678	92,92607	17,25492	20	20
950,13501	93,02708	16,96777	20	20
951,13955	93,12809	16,68189	20	20
952,16065	93,22909	16,3913	20	20
953,17894	93,3301	16,14853	20	20
954,18236	93,43111	15,8661	20	20
955,18632	93,53211	15,57977	20	20
956,19885	93,63312	15,34683	20	20
957,20935	93,73412	15,08067	20	20
958,22409	93,83513	14,78867	20	20
959,23209	93,93614	14,5752	20	20
960,24428	94,03714	14,3438	20	20
961,25446	94,13815	14,1191	20	20
962,27405	94,23916	13,88117	20	20
963,29047	94,34016	13,66217	20	20
964,28536	94,44117	13,47789	20	20
965,29867	94,54218	13,29448	20	20
966,30001	94,64318	13,11584	20	20
967,31489	94,74419	12,94266	20	20
968,32155	94,8452	12,78038	20	20
969,33737	94,9462	12,62717	20	20
970,34521	95,04721	12,46786	20	20
971,34689	95,14822	12,32614	20	20
972,35446	95,24922	12,20213	20	20
973,37345	95,35023	12,0883	20	20
974,38045	95,45124	11,97806	20	20
975,39448	95,55224	11,87528	20	20
976,39789	95,65325	11,78017	20	20
977,40973	95,75426	11,67642	20	20
978,42261	95,85526	11,58789	20	20
979,4306	95,95627	11,49934	20	20
980,43756	96,05728	11,42771	20	20
981,44424	96,15828	11,35614	20	20
982,44846	96,25929	11,28902	20	20
983,47379	96,3603	11,22615	20	20
984,47996	96,4613	11,1684	20	20
985,4909	96,56231	11,10866	20	20
986,49223	96,66332	11,05071	20	20
987,50887	96,76432	10,9976	20	20
988,51606	96,86533	10,95595	20	20
989,52752	96,96634	10,9175	20	20
990,53243	97,06734	10,87261	20	20
991,54918	97,16835	10,83284	20	20
992,58174	97,26936	10,79026	20	20
993,57169	97,37036	10,74068	20	20
994,57781	97,47137	10,70978	20	20
995,56766	97,57238	10,67603	20	20
996,5921	97,67338	10,63888	20	20
997,60359	97,77439	10,60638	20	20
998,61328	97,8754	10,58058	20	20
999,6356	97,9764	10,56059	20	20