File: TGA/MoS2 NS - Sódio.txt
##Temp./oC	Time/min	Mass/%	Gas Flow(purge1)/(ml/min)	Gas Flow(protective)/(ml/min)
25,809	0	100	20	20
27,809	1,07149	99,96838	20	20
29,809	1,42744	99,94233	20	20
31,809	1,70953	99,93429	20	20
33,809	1,95044	99,94693	20	20
35,809	2,16816	99,98033	20	20
37,809	2,36886	99,97531	20	20
39,809	2,55744	99,97106	20	20
41,809	2,73683	99,97187	20	20
43,809	2,91032	99,98491	20	20
45,809	3,07914	99,96302	20	20
47,809	3,24501	99,93274	20	20
49,809	3,40848	99,91539	20	20
51,809	3,57114	99,91221	20	20
53,809	3,73304	99,9156	20	20
55,809	3,89442	99,86237	20	20
57,809	4,05665	99,8276	20	20
59,809	4,21942	99,75171	20	20
61,809	4,38453	99,71286	20	20
63,809	4,55081	99,66567	20	20
65,809	4,71952	99,61479	20	20
67,809	4,89139	99,54656	20	20
69,809	5,06642	99,45561	20	20
71,809	5,24478	99,37437	20	20
73,809	5,42649	99,29256	20	20
75,809	5,61235	99,21985	20	20
77,809	5,80133	99,11721	20	20
79,809	5,99418	99,02223	20	20
81,809	6,18944	98,94322	20	20
83,809	6,38676	98,85386	20	20
85,809	6,58568	98,77487	20	20
87,809	6,78685	98,6861	20	20
89,809	6,98874	98,61855	20	20
91,809	7,1912	98,55548	20	20
93,809	7,39494	98,49042	20	20
95,809	7,60076	98,43136	20	20
97,809	7,80474	98,35939	20	20
99,809	8,00907	98,27128	20	20
101,809	8,21362	98,21383	20	20
103,809	8,41715	98,17158	20	20
105,809	8,62122	98,13376	20	20
107,809	8,82514	98,09732	20	20
109,809	9,02934	98,06847	20	20
111,809	9,23259	98,03703	20	20
113,809	9,43493	98,00943	20	20
115,809	9,63725	97,96409	20	20
117,809	9,83968	97,96706	20	20
119,809	10,0408	97,96132	20	20
121,809	10,24162	97,93225	20	20
123,809	10,44166	97,92471	20	20
125,809	10,64175	97,91834	20	20
127,809	10,8407	97,91727	20	20
129,809	11,03879	97,93368	20	20
131,809	11,23634	97,94036	20	20
133,809	11,43237	97,93463	20	20
135,809	11,62873	97,93768	20	20
137,809	11,82489	97,93655	20	20
139,809	12,0206	97,92578	20	20
141,809	12,21831	97,91252	20	20
143,809	12,41496	97,90615	20	20
145,809	12,61225	97,90364	20	20
147,809	12,81031	97,89506	20	20
149,809	13,00858	97,88962	20	20
151,809	13,20708	97,87318	20	20
153,809	13,4063	97,8752	20	20
155,809	13,60544	97,86444	20	20
157,809	13,80593	97,84681	20	20
159,809	14,00515	97,84434	20	20
161,809	14,2062	97,8468	20	20
163,809	14,40706	97,84315	20	20
165,809	14,60788	97,82003	20	20
167,809	14,80815	97,79626	20	20
169,809	15,00915	97,78354	20	20
171,809	15,21012	97,77716	20	20
173,809	15,41061	97,77395	20	20
175,809	15,61083	97,73896	20	20
177,809	15,81044	97,69717	20	20
179,809	16,01024	97,67746	20	20
181,809	16,21018	97,63393	20	20
183,809	16,40886	97,59936	20	20
185,809	16,60729	97,56985	20	20
187,809	16,80541	97,54	20	20
189,809	17,00442	97,48542	20	20
191,809	17,20327	97,4356	20	20
193,809	17,40222	97,39584	20	20
195,809	17,60162	97,33915	20	20
197,809	17,80057	97,28876	20	20
199,809	17,99936	97,24106	20	20
201,809	18,19883	97,16296	20	20
203,809	18,39862	97,09692	20	20
205,809	18,59862	97,03998	20	20
207,809	18,79894	96,94859	20	20
209,809	18,99867	96,87464	20	20
211,809	19,19843	96,79582	20	20
213,809	19,39872	96,70706	20	20
215,809	19,59963	96,6087	20	20
217,809	19,79929	96,53582	20	20
219,809	19,99931	96,43704	20	20
221,809	20,19962	96,3538	20	20
223,809	20,39992	96,24362	20	20
225,809	20,60011	96,14619	20	20
227,809	20,80005	96,01802	20	20
229,809	21,00076	95,88603	20	20
231,809	21,20125	95,73496	20	20
233,809	21,40072	95,59412	20	20
235,809	21,6004	95,47643	20	20
237,809	21,79971	95,32568	20	20
239,809	21,99947	95,18694	20	20
241,809	22,19941	95,0277	20	20
243,809	22,39929	94,86069	20	20
245,809	22,59879	94,70704	20	20
247,809	22,799	94,54508	20	20
249,809	22,99902	94,40734	20	20
251,809	23,19908	94,20829	20	20
253,809	23,39996	94,00812	20	20
255,809	23,60008	93,82914	20	20
257,809	23,80006	93,66772	20	20
259,809	23,99945	93,4581	20	20
261,809	24,19836	93,2192	20	20
263,809	24,39818	93,04085	20	20
265,809	24,59728	92,85176	20	20
267,809	24,79748	92,64124	20	20
269,809	24,99669	92,41334	20	20
271,809	25,19667	92,19668	20	20
273,809	25,39753	91,98553	20	20
275,809	25,59901	91,76356	20	20
277,809	25,79988	91,55357	20	20
279,809	26,00098	91,31612	20	20
281,809	26,20203	91,10303	20	20
283,809	26,40366	90,82252	20	20
285,809	26,60648	90,61333	20	20
287,809	26,80815	90,39015	20	20
289,809	27,01001	90,12423	20	20
291,809	27,21034	89,85493	20	20
293,809	27,41066	89,64174	20	20
295,809	27,61099	89,39996	20	20
297,809	27,81036	89,14897	20	20
299,809	28,00923	88,92285	20	20
301,809	28,20837	88,67629	20	20
303,809	28,4085	88,42722	20	20
305,809	28,60858	88,19576	20	20
307,809	28,80863	87,96289	20	20
309,809	29,00799	87,70988	20	20
311,809	29,20867	87,45616	20	20
313,809	29,4088	87,19123	20	20
315,809	29,60951	86,95981	20	20
317,809	29,8103	86,71631	20	20
319,809	30,01025	86,44579	20	20
321,809	30,20997	86,18109	20	20
323,809	30,41039	85,95251	20	20
325,809	30,61061	85,72261	20	20
327,809	30,81012	85,48065	20	20
329,809	31,00976	85,23735	20	20
331,809	31,20947	85,00667	20	20
333,809	31,40883	84,76384	20	20
335,809	31,60762	84,55053	20	20
337,809	31,80709	84,30608	20	20
339,809	32,00663	84,06972	20	20
341,809	32,20645	83,84606	20	20
343,809	32,40614	83,63902	20	20
345,809	32,6051	83,41769	20	20
347,809	32,80529	83,17173	20	20
349,809	33,00512	82,95347	20	20
351,809	33,20503	82,719	20	20
353,809	33,40511	82,46498	20	20
355,809	33,60511	82,24512	20	20
357,809	33,80494	82,0484	20	20
359,809	34,0046	81,82333	20	20
361,809	34,20503	81,55781	20	20
363,809	34,40559	81,3628	20	20
365,809	34,60546	81,15384	20	20
367,809	34,80594	80,91878	20	20
369,809	35,00553	80,71003	20	20
371,809	35,20558	80,51205	20	20
373,809	35,40576	80,28182	20	20
375,809	35,6057	80,06933	20	20
377,809	35,80563	79,78585	20	20
379,809	36,0059	79,58429	20	20
381,809	36,20563	79,34427	20	20
383,809	36,40547	79,11568	20	20
385,809	36,60573	78,84026	20	20
387,809	36,80578	78,5912	20	20
389,809	37,00561	78,32614	20	20
391,809	37,20616	78,04385	20	20
393,809	37,40526	77,75788	20	20
395,809	37,60479	77,47876	20	20
397,809	37,8046	77,20887	20	20
399,809	38,00523	76,90142	20	20
401,809	38,20537	76,61409	20	20
403,809	38,40518	76,32324	20	20
405,809	38,60582	76,03166	20	20
407,809	38,80467	75,74914	20	20
409,809	39,00486	75,44836	20	20
411,809	39,20537	75,14146	20	20
413,809	39,40647	74,82388	20	20
415,809	39,60708	74,53554	20	20
417,809	39,80894	74,235	20	20
419,809	40,0096	73,93269	20	20
421,809	40,21024	73,63263	20	20
423,809	40,4093	73,36308	20	20
425,809	40,60874	73,05086	20	20
427,809	40,80787	72,79161	20	20
429,809	41,00746	72,52036	20	20
431,809	41,20796	72,20607	20	20
433,809	41,40751	71,9086	20	20
435,809	41,60704	71,56354	20	20
437,809	41,80621	71,0843	20	20
439,809	42,00662	70,64478	20	20
441,809	42,2087	70,23597	20	20
443,809	42,41198	69,85019	20	20
445,809	42,61519	69,51313	20	20
447,809	42,81801	69,28027	20	20
449,809	43,0195	69,07216	20	20
451,809	43,21941	68,84509	20	20
453,809	43,41916	68,66392	20	20
455,809	43,61837	68,49381	20	20
457,809	43,81656	68,32883	20	20
459,809	44,01499	68,18492	20	20
461,809	44,21455	68,07673	20	20
463,809	44,41389	67,96832	20	20
465,809	44,61359	67,87538	20	20
467,809	44,81348	67,80395	20	20
469,809	45,01359	67,73718	20	20
471,809	45,21433	67,68021	20	20
473,809	45,41598	67,6441	20	20
475,809	45,61903	67,63243	20	20
477,809	45,82206	67,61969	20	20
479,809	46,02506	67,65069	20	20
481,809	46,22726	67,70489	20	20
483,809	46,42962	67,82583	20	20
485,809	46,63027	67,98403	20	20
487,809	46,83047	68,16926	20	20
489,809	47,03138	68,38661	20	20
491,809	47,23243	68,63135	20	20
493,809	47,43501	68,80121	20	20
495,809	47,6396	68,91946	20	20
497,809	47,84354	69,03262	20	20
499,809	48,04604	69,12973	20	20
501,809	48,24745	69,18359	20	20
503,809	48,44658	69,2334	20	20
505,809	48,64283	69,27085	20	20
507,809	48,83729	69,27752	20	20
509,809	49,03095	69,28466	20	20
511,809	49,22397	69,29435	20	20
513,809	49,41785	69,3042	20	20
515,809	49,61198	69,30838	20	20
517,809	49,80771	69,30759	20	20
519,809	50,0049	69,30759	20	20
521,809	50,20389	69,31622	20	20
523,809	50,4034	69,32129	20	20
525,809	50,60403	69,32665	20	20
527,809	50,80521	69,33054	20	20
529,809	51,00637	69,33501	20	20
531,809	51,20804	69,3376	20	20
533,809	51,40915	69,33217	20	20
535,809	51,60974	69,33842	20	20
537,809	51,80987	69,35349	20	20
539,809	52,00962	69,36135	20	20
541,809	52,20931	69,37168	20	20
543,809	52,40855	69,37321	20	20
545,809	52,6078	69,37629	20	20
547,809	52,8066	69,37722	20	20
549,809	53,00576	69,37881	20	20
551,809	53,20517	69,3804	20	20
553,809	53,40461	69,38154	20	20
555,809	53,60427	69,38355	20	20
557,809	53,80361	69,3862	20	20
559,809	54,0045	69,38757	20	20
561,809	54,20503	69,38197	20	20
563,809	54,4061	69,38272	20	20
565,809	54,60705	69,38199	20	20
567,809	54,80852	69,38192	20	20
569,809	55,00913	69,38197	20	20
571,809	55,20936	69,38117	20	20
573,809	55,40848	69,37961	20	20
575,809	55,60828	69,37881	20	20
577,809	55,80782	69,39144	20	20
579,809	56,0072	69,39463	20	20
581,809	56,20596	69,39384	20	20
583,809	56,40555	69,39272	20	20
585,809	56,60522	69,37681	20	20
587,809	56,80464	69,37175	20	20
589,809	57,0042	69,36604	20	20
591,809	57,20359	69,36219	20	20
593,809	57,40315	69,3614	20	20
595,809	57,60306	69,36061	20	20
597,809	57,80327	69,35982	20	20
599,809	58,00325	69,35903	20	20
601,809	58,20358	69,35903	20	20
603,809	58,40387	69,35903	20	20
605,809	58,60364	69,35903	20	20
607,809	58,80397	69,35823	20	20
609,809	59,00429	69,35667	20	20
611,809	59,20399	69,35556	20	20
613,809	59,40406	69,35382	20	20
615,809	59,60419	69,32071	20	20
617,809	59,80441	69,30679	20	20
619,809	60,00408	69,29726	20	20
621,809	60,20348	69,28441	20	20
623,809	60,4033	69,28619	20	20
625,809	60,60317	69,28068	20	20
627,809	60,80342	69,28148	20	20
629,809	61,00306	69,28227	20	20
631,809	61,20278	69,27945	20	20
633,809	61,40291	69,2462	20	20
635,809	61,60319	69,22187	20	20
637,809	61,80301	69,21475	20	20
639,809	62,0029	69,20313	20	20
641,809	62,20329	69,2054	20	20
643,809	62,40311	69,18651	20	20
645,809	62,603	69,1881	20	20
647,809	62,80275	69,18969	20	20
649,809	63,0027	69,17297	20	20
651,809	63,20257	69,15918	20	20
653,809	63,40223	69,12471	20	20
655,809	63,60253	69,10952	20	20
657,809	63,80281	69,1058	20	20
659,809	64,00283	69,10245	20	20
661,809	64,20306	69,09454	20	20
663,809	64,40268	69,06918	20	20
665,809	64,60227	69,0526	20	20
667,809	64,80256	69,03437	20	20
669,809	65,0028	69,04348	20	20
671,809	65,2027	69,04574	20	20
673,809	65,40208	69,0463	20	20
675,809	65,60228	69,04487	20	20
677,809	65,80204	69,04394	20	20
679,809	66,00198	69,04174	20	20
681,809	66,20211	69,03444	20	20
683,809	66,40219	69,02351	20	20
685,809	66,60228	69,02505	20	20
687,809	66,80312	69,01398	20	20
689,809	67,00378	68,99897	20	20
691,809	67,20318	69,02036	20	20
693,809	67,4023	69,02999	20	20
695,809	67,60179	69,01001	20	20
697,809	67,80154	68,99253	20	20
699,809	68,00109	68,98314	20	20
701,809	68,20102	68,98392	20	20
703,809	68,40095	68,98552	20	20
705,809	68,60003	68,98631	20	20
707,809	68,80003	68,9871	20	20
709,809	68,99994	68,98868	20	20
711,809	69,20069	68,98948	20	20
713,809	69,40108	68,98868	20	20
715,809	69,60122	68,9878	20	20
717,809	69,80198	68,98711	20	20
719,809	70,00154	68,9871	20	20
721,809	70,20183	68,98523	20	20
723,809	70,40145	68,97755	20	20
725,809	70,60092	68,97526	20	20
727,809	70,80086	68,96261	20	20
729,809	71,0001	68,95465	20	20
731,809	71,20044	68,94989	20	20
733,809	71,40096	68,94907	20	20
735,809	71,60068	68,93173	20	20
737,809	71,80074	68,93321	20	20
739,809	72,0003	68,91904	20	20
741,809	72,1999	68,89057	20	20
743,809	72,39991	68,88028	20	20
745,809	72,59991	68,86524	20	20
747,809	72,79992	68,83754	20	20
749,809	73,0003	68,81769	20	20
751,809	73,20077	68,78685	20	20
753,809	73,40086	68,75255	20	20
755,809	73,60157	68,71064	20	20
757,809	73,80194	68,66785	20	20
759,809	74,00248	68,62383	20	20
761,809	74,20347	68,59439	20	20
763,809	74,40372	68,52984	20	20
765,809	74,60277	68,47229	20	20
767,809	74,80177	68,41763	20	20
769,809	75,00031	68,3587	20	20
771,809	75,19795	68,27241	20	20
773,809	75,39206	68,20495	20	20
775,809	75,58725	68,131	20	20
777,809	75,785	68,05367	20	20
779,809	75,98487	67,96841	20	20
781,809	76,18704	67,87081	20	20
783,809	76,39015	67,78976	20	20
785,809	76,59301	67,68151	20	20
787,809	76,79578	67,59893	20	20
789,809	76,99801	67,48204	20	20
791,809	77,19961	67,37672	20	20
793,809	77,40037	67,28392	20	20
795,809	77,60051	67,17149	20	20
797,809	77,79966	67,06911	20	20
799,809	77,99833	66,93661	20	20
801,809	78,19689	66,81983	20	20
803,809	78,39573	66,6813	20	20
805,809	78,59458	66,52562	20	20
807,809	78,79312	66,3413	20	20
809,809	78,99288	66,1741	20	20
811,809	79,19266	65,97496	20	20
813,809	79,39226	65,76389	20	20
815,809	79,59327	65,51491	20	20
817,809	79,7945	65,27713	20	20
819,809	79,99522	65,02012	20	20
821,809	80,19616	64,73488	20	20
823,809	80,39707	64,43326	20	20
825,809	80,5978	64,13201	20	20
827,809	80,79806	63,80331	20	20
829,809	80,99758	63,46664	20	20
831,809	81,19699	63,08546	20	20
833,809	81,39638	62,68685	20	20
835,809	81,59581	62,25179	20	20
837,809	81,79534	61,85011	20	20
839,809	81,99541	61,42726	20	20
841,809	82,19477	60,91399	20	20
843,809	82,3953	60,51942	20	20
845,809	82,59625	59,9813	20	20
847,809	82,79723	59,582	20	20
849,809	82,99874	59,04964	20	20
851,809	83,19819	58,61469	20	20
853,809	83,39944	58,11126	20	20
855,809	83,59935	57,69074	20	20
857,809	83,79889	57,1846	20	20
859,809	83,9989	56,78468	20	20
861,809	84,1983	56,27152	20	20
863,809	84,39792	55,9012	20	20
865,809	84,59753	55,5035	20	20
867,809	84,79724	55,08436	20	20
869,809	84,99757	54,6913	20	20
871,809	85,19686	54,2756	20	20
873,809	85,3968	53,89196	20	20
875,809	85,59686	53,50234	20	20
877,809	85,79644	53,12603	20	20
879,809	85,99614	52,75859	20	20
881,809	86,1958	52,38377	20	20
883,809	86,39561	52,02444	20	20
885,809	86,59568	51,65595	20	20
887,809	86,79599	51,27128	20	20
889,809	86,99684	50,88381	20	20
891,809	87,19644	50,48562	20	20
893,809	87,39668	50,08587	20	20
895,809	87,59629	49,64939	20	20
897,809	87,79579	49,22739	20	20
899,809	87,99515	48,71186	20	20
901,809	88,19481	48,28455	20	20
903,809	88,39469	47,76117	20	20
905,809	88,59464	47,284	20	20
907,809	88,79462	46,71987	20	20
909,809	88,99481	46,17443	20	20
911,809	89,19517	45,62221	20	20
913,809	89,39566	45,02705	20	20
915,809	89,59592	44,40025	20	20
917,809	89,79635	43,76248	20	20
919,809	89,99644	43,11647	20	20
921,809	90,19673	42,40762	20	20
923,809	90,39714	41,66609	20	20
925,809	90,59731	40,86704	20	20
927,809	90,79817	39,99612	20	20
929,809	90,9987	39,10154	20	20
931,809	91,19934	38,16202	20	20
933,809	91,40021	37,07094	20	20
935,809	91,60078	35,91616	20	20
937,809	91,80164	34,67799	20	20
939,809	92,00201	33,38391	20	20
941,809	92,20092	32,12002	20	20
943,809	92,39833	30,92036	20	20
945,809	92,59677	29,74829	20	20
947,809	92,79492	28,63158	20	20
949,809	92,99384	27,48542	20	20
951,809	93,19274	26,35433	20	20
953,809	93,39222	25,20062	20	20
955,809	93,59218	24,0968	20	20
957,809	93,79253	23,00102	20	20
959,809	93,99248	21,97713	20	20
961,809	94,19304	21,04273	20	20
963,809	94,39265	20,19661	20	20
965,809	94,59275	19,41699	20	20
967,809	94,79325	18,73165	20	20
969,809	94,99484	18,13039	20	20
971,809	95,19532	17,56089	20	20
973,809	95,39551	17,11621	20	20
975,809	95,59554	16,73565	20	20
977,809	95,7958	16,3612	20	20
979,809	95,99587	16,03234	20	20
981,809	96,19517	15,73143	20	20
983,809	96,39485	15,50666	20	20
985,809	96,59562	15,31213	20	20
987,809	96,7953	15,1332	20	20
989,809	96,99485	14,97156	20	20
991,809	97,19503	14,81074	20	20
993,809	97,3947	14,65413	20	20
995,809	97,595	14,55141	20	20
997,809	97,7943	14,43844	20	20