File: TGA/MoS2 NS - Sódio.csv
#EXPORTTYPE:                 ;DATA ALL
#FILE:                       ;MoS2 NS - Sõdio.ngb-ds3
#FORMAT:                     ;NETZSCH5
#FTYPE:                      ;ASCII
#IDENTITY:                   ;MoS2 NS - Sõdio
#DECIMAL:                    ;COMMA
#SEPARATOR:                  ;SEMICOLON
#MTYPE:                      ;TG
#INSTRUMENT:                 ;NETZSCH STA 449F3
#PROJECT:                    ;-
#DATE/TIME:                  ;21/11/2024 13:23:36 (UTC-3)
#CORR. FILE:                 ;Correction.ngb-bs3
#TEMPCAL:                    ;Cal_08_2024_Ar_5C.ngb-ts3
#SENSITIVITY:                ;---
#LABORATORY:                 ;Proc de Nanocerümicas
#OPERATOR:                   ;Danilo Janes
#REMARK:                     ;
#SAMPLE:                     ;MoS2 NS - Sõdio
#SAMPLE MASS /mg:            ;12,6370
#MATERIAL:                   ;
#REFERENCE:                  ;
#REFERENCE MASS /mg:         ;
#TYPE OF CRUCIBLE:           ;DTA/TG crucible Al2O3
#SAMPLE CRUCIBLE MASS /mg:   ;0
#REFERENCE CRUCIBLE MASS /mg:;
#TG RANGE /mg:               ;35000
#TAU-R:                      ;---
#CORR. CODE:                 ;020
#EXO:                        ;-1
#RANGE:                      ;20oC/10,0(K/min)/1000oC
#SEGMENT:                    ;S1/1
#SEG. 1:                     ;20oC/10,0(K/min)/1000oC

##Temp./oC;Time/min;Mass/%;Gas Flow(purge1)/(ml/min);Gas Flow(protective)/(ml/min)
 25,80900; 0,00000;100,00000;20,00000;20,00000
 27,80900; 1,07149; 99,96838;20,00000;20,00000
 29,80900; 1,42744; 99,94233;20,00000;20,00000
 31,80900; 1,70953; 99,93429;20,00000;20,00000
 33,80900; 1,95044; 99,94693;20,00000;20,00000
 35,80900; 2,16816; 99,98033;20,00000;20,00000
 37,80900; 2,36886; 99,97531;20,00000;20,00000
 39,80900; 2,55744; 99,97106;20,00000;20,00000
 41,80900; 2,73683; 99,97187;20,00000;20,00000
 43,80900; 2,91032; 99,98491;20,00000;20,00000
 45,80900; 3,07914; 99,96302;20,00000;20,00000
 47,80900; 3,24501; 99,93274;20,00000;20,00000
 49,80900; 3,40848; 99,91539;20,00000;20,00000
 51,80900; 3,57114; 99,91221;20,00000;20,00000
 53,80900; 3,73304; 99,91560;20,00000;20,00000
 55,80900; 3,89442; 99,86237;20,00000;20,00000
 57,80900; 4,05665; 99,82760;20,00000;20,00000
 59,80900; 4,21942; 99,75171;20,00000;20,00000
 61,80900; 4,38453; 99,71286;20,00000;20,00000
 63,80900; 4,55081; 99,66567;20,00000;20,00000
 65,80900; 4,71952; 99,61479;20,00000;20,00000
 67,80900; 4,89139; 99,54656;20,00000;20,00000
 69,80900; 5,06642; 99,45561;20,00000;20,00000
 71,80900; 5,24478; 99,37437;20,00000;20,00000
 73,80900; 5,42649; 99,29256;20,00000;20,00000
 75,80900; 5,61235; 99,21985;20,00000;20,00000
 77,80900; 5,80133; 99,11721;20,00000;20,00000
 79,80900; 5,99418; 99,02223;20,00000;20,00000
 81,80900; 6,18944; 98,94322;20,00000;20,00000
 83,80900; 6,38676; 98,85386;20,00000;20,00000
 85,80900; 6,58568; 98,77487;20,00000;20,00000
 87,80900; 6,78685; 98,68610;20,00000;20,00000
 89,80900; 6,98874; 98,61855;20,00000;20,00000
 91,80900; 7,19120; 98,55548;20,00000;20,00000
 93,80900; 7,39494; 98,49042;20,00000;20,00000
 95,80900; 7,60076; 98,43136;20,00000;20,00000
 97,80900; 7,80474; 98,35939;20,00000;20,00000
 99,80900; 8,00907; 98,27128;20,00000;20,00000
101,80900; 8,21362; 98,21383;20,00000;20,00000
103,80900; 8,41715; 98,17158;20,00000;20,00000
105,80900; 8,62122; 98,13376;20,00000;20,00000
107,80900; 8,82514; 98,09732;20,00000;20,00000
109,80900; 9,02934; 98,06847;20,00000;20,00000
111,80900; 9,23259; 98,03703;20,00000;20,00000
113,80900; 9,43493; 98,00943;20,00000;20,00000
115,80900; 9,63725; 97,96409;20,00000;20,00000
117,80900; 9,83968; 97,96706;20,00000;20,00000
119,80900;10,04080; 97,96132;20,00000;20,00000
121,80900;10,24162; 97,93225;20,00000;20,00000
123,80900;10,44166; 97,92471;20,00000;20,00000
125,80900;10,64175; 97,91834;20,00000;20,00000
127,80900;10,84070; 97,91727;20,00000;20,00000
129,80900;11,03879; 97,93368;20,00000;20,00000
131,80900;11,23634; 97,94036;20,00000;20,00000
133,80900;11,43237; 97,93463;20,00000;20,00000
135,80900;11,62873; 97,93768;20,00000;20,00000
137,80900;11,82489; 97,93655;20,00000;20,00000
139,80900;12,02060; 97,92578;20,00000;20,00000
141,80900;12,21831; 97,91252;20,00000;20,00000
143,80900;12,41496; 97,90615;20,00000;20,00000
145,80900;12,61225; 97,90364;20,00000;20,00000
147,80900;12,81031; 97,89506;20,00000;20,00000
149,80900;13,00858; 97,88962;20,00000;20,00000
151,80900;13,20708; 97,87318;20,00000;20,00000
153,80900;13,40630; 97,87520;20,00000;20,00000
155,80900;13,60544; 97,86444;20,00000;20,00000
157,80900;13,80593; 97,84681;20,00000;20,00000
159,80900;14,00515; 97,84434;20,00000;20,00000
161,80900;14,20620; 97,84680;20,00000;20,00000
163,80900;14,40706; 97,84315;20,00000;20,00000
165,80900;14,60788; 97,82003;20,00000;20,00000
167,80900;14,80815; 97,79626;20,00000;20,00000
169,80900;15,00915; 97,78354;20,00000;20,00000
171,80900;15,21012; 97,77716;20,00000;20,00000
173,80900;15,41061; 97,77395;20,00000;20,00000
175,80900;15,61083; 97,73896;20,00000;20,00000
177,80900;15,81044; 97,69717;20,00000;20,00000
179,80900;16,01024; 97,67746;20,00000;20,00000
181,80900;16,21018; 97,63393;20,00000;20,00000
183,80900;16,40886; 97,59936;20,00000;20,00000
185,80900;16,60729; 97,56985;20,00000;20,00000
187,80900;16,80541; 97,54000;20,00000;20,00000
189,80900;17,00442; 97,48542;20,00000;20,00000
191,80900;17,20327; 97,43560;20,00000;20,00000
193,80900;17,40222; 97,39584;20,00000;20,00000
195,80900;17,60162; 97,33915;20,00000;20,00000
197,80900;17,80057; 97,28876;20,00000;20,00000
199,80900;17,99936; 97,24106;20,00000;20,00000
201,80900;18,19883; 97,16296;20,00000;20,00000
203,80900;18,39862; 97,09692;20,00000;20,00000
205,80900;18,59862; 97,03998;20,00000;20,00000
207,80900;18,79894; 96,94859;20,00000;20,00000
209,80900;18,99867; 96,87464;20,00000;20,00000
211,80900;19,19843; 96,79582;20,00000;20,00000
213,80900;19,39872; 96,70706;20,00000;20,00000
215,80900;19,59963; 96,60870;20,00000;20,00000
217,80900;19,79929; 96,53582;20,00000;20,00000
219,80900;19,99931; 96,43704;20,00000;20,00000
221,80900;20,19962; 96,35380;20,00000;20,00000
223,80900;20,39992; 96,24362;20,00000;20,00000
225,80900;20,60011; 96,14619;20,00000;20,00000
227,80900;20,80005; 96,01802;20,00000;20,00000
229,80900;21,00076; 95,88603;20,00000;20,00000
231,80900;21,20125; 95,73496;20,00000;20,00000
233,80900;21,40072; 95,59412;20,00000;20,00000
235,80900;21,60040; 95,47643;20,00000;20,00000
237,80900;21,79971; 95,32568;20,00000;20,00000
239,80900;21,99947; 95,18694;20,00000;20,00000
241,80900;22,19941; 95,02770;20,00000;20,00000
243,80900;22,39929; 94,86069;20,00000;20,00000
245,80900;22,59879; 94,70704;20,00000;20,00000
247,80900;22,79900; 94,54508;20,00000;20,00000
249,80900;22,99902; 94,40734;20,00000;20,00000
251,80900;23,19908; 94,20829;20,00000;20,00000
253,80900;23,39996; 94,00812;20,00000;20,00000
255,80900;23,60008; 93,82914;20,00000;20,00000
257,80900;23,80006; 93,66772;20,00000;20,00000
259,80900;23,99945; 93,45810;20,00000;20,00000
261,80900;24,19836; 93,21920;20,00000;20,00000
263,80900;24,39818; 93,04085;20,00000;20,00000
265,80900;24,59728; 92,85176;20,00000;20,00000
267,80900;24,79748; 92,64124;20,00000;20,00000
269,80900;24,99669; 92,41334;20,00000;20,00000
271,80900;25,19667; 92,19668;20,00000;20,00000
273,80900;25,39753; 91,98553;20,00000;20,00000
275,80900;25,59901; 91,76356;20,00000;20,00000
277,80900;25,79988; 91,55357;20,00000;20,00000
279,80900;26,00098; 91,31612;20,00000;20,00000
281,80900;26,20203; 91,10303;20,00000;20,00000
283,80900;26,40366; 90,82252;20,00000;20,00000
285,80900;26,60648; 90,61333;20,00000;20,00000
287,80900;26,80815; 90,39015;20,00000;20,00000
289,80900;27,01001; 90,12423;20,00000;20,00000
291,80900;27,21034; 89,85493;20,00000;20,00000
293,80900;27,41066; 89,64174;20,00000;20,00000
295,80900;27,61099; 89,39996;20,00000;20,00000
297,80900;27,81036; 89,14897;20,00000;20,00000
299,80900;28,00923; 88,92285;20,00000;20,00000
301,80900;28,20837; 88,67629;20,00000;20,00000
303,80900;28,40850; 88,42722;20,00000;20,00000
305,80900;28,60858; 88,19576;20,00000;20,00000
307,80900;28,80863; 87,96289;20,00000;20,00000
309,80900;29,00799; 87,70988;20,00000;20,00000
311,80900;29,20867; 87,45616;20,00000;20,00000
313,80900;29,40880; 87,19123;20,00000;20,00000
315,80900;29,60951; 86,95981;20,00000;20,00000
317,80900;29,81030; 86,71631;20,00000;20,00000
319,80900;30,01025; 86,44579;20,00000;20,00000
321,80900;30,20997; 86,18109;20,00000;20,00000
323,80900;30,41039; 85,95251;20,00000;20,00000
325,80900;30,61061; 85,72261;20,00000;20,00000
327,80900;30,81012; 85,48065;20,00000;20,00000
329,80900;31,00976; 85,23735;20,00000;20,00000
331,80900;31,20947; 85,00667;20,00000;20,00000
333,80900;31,40883; 84,76384;20,00000;20,00000
335,80900;31,60762; 84,55053;20,00000;20,00000
337,80900;31,80709; 84,30608;20,00000;20,00000
339,80900;32,00663; 84,06972;20,00000;20,00000
341,80900;32,20645; 83,84606;20,00000;20,00000
343,80900;32,40614; 83,63902;20,00000;20,00000
345,80900;32,60510; 83,41769;20,00000;20,00000
347,80900;32,80529; 83,17173;20,00000;20,00000
349,80900;33,00512; 82,95347;20,00000;20,00000
351,80900;33,20503; 82,71900;20,00000;20,00000
353,80900;33,40511; 82,46498;20,00000;20,00000
355,80900;33,60511; 82,24512;20,00000;20,00000
357,80900;33,80494; 82,04840;20,00000;20,00000
359,80900;34,00460; 81,82333;20,00000;20,00000
361,80900;34,20503; 81,55781;20,00000;20,00000
363,80900;34,40559; 81,36280;20,00000;20,00000
365,80900;34,60546; 81,15384;20,00000;20,00000
367,80900;34,80594; 80,91878;20,00000;20,00000
369,80900;35,00553; 80,71003;20,00000;20,00000
371,80900;35,20558; 80,51205;20,00000;20,00000
373,80900;35,40576; 80,28182;20,00000;20,00000
375,80900;35,60570; 80,06933;20,00000;20,00000
377,80900;35,80563; 79,78585;20,00000;20,00000
379,80900;36,00590; 79,58429;20,00000;20,00000
381,80900;36,20563; 79,34427;20,00000;20,00000
383,80900;36,40547; 79,11568;20,00000;20,00000
385,80900;36,60573; 78,84026;20,00000;20,00000
387,80900;36,80578; 78,59120;20,00000;20,00000
389,80900;37,00561; 78,32614;20,00000;20,00000
391,80900;37,20616; 78,04385;20,00000;20,00000
393,80900;37,40526; 77,75788;20,00000;20,00000
395,80900;37,60479; 77,47876;20,00000;20,00000
397,80900;37,80460; 77,20887;20,00000;20,00000
399,80900;38,00523; 76,90142;20,00000;20,00000
401,80900;38,20537; 76,61409;20,00000;20,00000
403,80900;38,40518; 76,32324;20,00000;20,00000
405,80900;38,60582; 76,03166;20,00000;20,00000
407,80900;38,80467; 75,74914;20,00000;20,00000
409,80900;39,00486; 75,44836;20,00000;20,00000
411,80900;39,20537; 75,14146;20,00000;20,00000
413,80900;39,40647; 74,82388;20,00000;20,00000
415,80900;39,60708; 74,53554;20,00000;20,00000
417,80900;39,80894; 74,23500;20,00000;20,00000
419,80900;40,00960; 73,93269;20,00000;20,00000
421,80900;40,21024; 73,63263;20,00000;20,00000
423,80900;40,40930; 73,36308;20,00000;20,00000
425,80900;40,60874; 73,05086;20,00000;20,00000
427,80900;40,80787; 72,79161;20,00000;20,00000
429,80900;41,00746; 72,52036;20,00000;20,00000
431,80900;41,20796; 72,20607;20,00000;20,00000
433,80900;41,40751; 71,90860;20,00000;20,00000
435,80900;41,60704; 71,56354;20,00000;20,00000
437,80900;41,80621; 71,08430;20,00000;20,00000
439,80900;42,00662; 70,64478;20,00000;20,00000
441,80900;42,20870; 70,23597;20,00000;20,00000
443,80900;42,41198; 69,85019;20,00000;20,00000
445,80900;42,61519; 69,51313;20,00000;20,00000
447,80900;42,81801; 69,28027;20,00000;20,00000
449,80900;43,01950; 69,07216;20,00000;20,00000
451,80900;43,21941; 68,84509;20,00000;20,00000
453,80900;43,41916; 68,66392;20,00000;20,00000
455,80900;43,61837; 68,49381;20,00000;20,00000
457,80900;43,81656; 68,32883;20,00000;20,00000
459,80900;44,01499; 68,18492;20,00000;20,00000
461,80900;44,21455; 68,07673;20,00000;20,00000
463,80900;44,41389; 67,96832;20,00000;20,00000
465,80900;44,61359; 67,87538;20,00000;20,00000
467,80900;44,81348; 67,80395;20,00000;20,00000
469,80900;45,01359; 67,73718;20,00000;20,00000
471,80900;45,21433; 67,68021;20,00000;20,00000
473,80900;45,41598; 67,64410;20,00000;20,00000
475,80900;45,61903; 67,63243;20,00000;20,00000
477,80900;45,82206; 67,61969;20,00000;20,00000
479,80900;46,02506; 67,65069;20,00000;20,00000
481,80900;46,22726; 67,70489;20,00000;20,00000
483,80900;46,42962; 67,82583;20,00000;20,00000
485,80900;46,63027; 67,98403;20,00000;20,00000
487,80900;46,83047; 68,16926;20,00000;20,00000
489,80900;47,03138; 68,38661;20,00000;20,00000
491,80900;47,23243; 68,63135;20,00000;20,00000
493,80900;47,43501; 68,80121;20,00000;20,00000
495,80900;47,63960; 68,91946;20,00000;20,00000
497,80900;47,84354; 69,03262;20,00000;20,00000
499,80900;48,04604; 69,12973;20,00000;20,00000
501,80900;48,24745; 69,18359;20,00000;20,00000
503,80900;48,44658; 69,23340;20,00000;20,00000
505,80900;48,64283; 69,27085;20,00000;20,00000
507,80900;48,83729; 69,27752;20,00000;20,00000
509,80900;49,03095; 69,28466;20,00000;20,00000
511,80900;49,22397; 69,29435;20,00000;20,00000
513,80900;49,41785; 69,30420;20,00000;20,00000
515,80900;49,61198; 69,30838;20,00000;20,00000
517,80900;49,80771; 69,30759;20,00000;20,00000
519,80900;50,00490; 69,30759;20,00000;20,00000
521,80900;50,20389; 69,31622;20,00000;20,00000
523,80900;50,40340; 69,32129;20,00000;20,00000
525,80900;50,60403; 69,32665;20,00000;20,00000
527,80900;50,80521; 69,33054;20,00000;20,00000
529,80900;51,00637; 69,33501;20,00000;20,00000
531,80900;51,20804; 69,33760;20,00000;20,00000
533,80900;51,40915; 69,33217;20,00000;20,00000
535,80900;51,60974; 69,33842;20,00000;20,00000
537,80900;51,80987; 69,35349;20,00000;20,00000
539,80900;52,00962; 69,36135;20,00000;20,00000
541,80900;52,20931; 69,37168;20,00000;20,00000
543,80900;52,40855; 69,37321;20,00000;20,00000
545,80900;52,60780; 69,37629;20,00000;20,00000
547,80900;52,80660; 69,37722;20,00000;20,00000
549,80900;53,00576; 69,37881;20,00000;20,00000
551,80900;53,20517; 69,38040;20,00000;20,00000
553,80900;53,40461; 69,38154;20,00000;20,00000
555,80900;53,60427; 69,38355;20,00000;20,00000
557,80900;53,80361; 69,38620;20,00000;20,00000
559,80900;54,00450; 69,38757;20,00000;20,00000
561,80900;54,20503; 69,38197;20,00000;20,00000
563,80900;54,40610; 69,38272;20,00000;20,00000
565,80900;54,60705; 69,38199;20,00000;20,00000
567,80900;54,80852; 69,38192;20,00000;20,00000
569,80900;55,00913; 69,38197;20,00000;20,00000
571,80900;55,20936; 69,38117;20,00000;20,00000
573,80900;55,40848; 69,37961;20,00000;20,00000
575,80900;55,60828; 69,37881;20,00000;20,00000
577,80900;55,80782; 69,39144;20,00000;20,00000
579,80900;56,00720; 69,39463;20,00000;20,00000
581,80900;56,20596; 69,39384;20,00000;20,00000
583,80900;56,40555; 69,39272;20,00000;20,00000
585,80900;56,60522; 69,37681;20,00000;20,00000
587,80900;56,80464; 69,37175;20,00000;20,00000
589,80900;57,00420; 69,36604;20,00000;20,00000
591,80900;57,20359; 69,36219;20,00000;20,00000
593,80900;57,40315; 69,36140;20,00000;20,00000
595,80900;57,60306; 69,36061;20,00000;20,00000
597,80900;57,80327; 69,35982;20,00000;20,00000
599,80900;58,00325; 69,35903;20,00000;20,00000
601,80900;58,20358; 69,35903;20,00000;20,00000
603,80900;58,40387; 69,35903;20,00000;20,00000
605,80900;58,60364; 69,35903;20,00000;20,00000
607,80900;58,80397; 69,35823;20,00000;20,00000
609,80900;59,00429; 69,35667;20,00000;20,00000
611,80900;59,20399; 69,35556;20,00000;20,00000
613,80900;59,40406; 69,35382;20,00000;20,00000
615,80900;59,60419; 69,32071;20,00000;20,00000
617,80900;59,80441; 69,30679;20,00000;20,00000
619,80900;60,00408; 69,29726;20,00000;20,00000
621,80900;60,20348; 69,28441;20,00000;20,00000
623,80900;60,40330; 69,28619;20,00000;20,00000
625,80900;60,60317; 69,28068;20,00000;20,00000
627,80900;60,80342; 69,28148;20,00000;20,00000
629,80900;61,00306; 69,28227;20,00000;20,00000
631,80900;61,20278; 69,27945;20,00000;20,00000
633,80900;61,40291; 69,24620;20,00000;20,00000
635,80900;61,60319; 69,22187;20,00000;20,00000
637,80900;61,80301; 69,21475;20,00000;20,00000
639,80900;62,00290; 69,20313;20,00000;20,00000
641,80900;62,20329; 69,20540;20,00000;20,00000
643,80900;62,40311; 69,18651;20,00000;20,00000
645,80900;62,60300; 69,18810;20,00000;20,00000
647,80900;62,80275; 69,18969;20,00000;20,00000
649,80900;63,00270; 69,17297;20,00000;20,00000
651,80900;63,20257; 69,15918;20,00000;20,00000
653,80900;63,40223; 69,12471;20,00000;20,00000
655,80900;63,60253; 69,10952;20,00000;20,00000
657,80900;63,80281; 69,10580;20,00000;20,00000
659,80900;64,00283; 69,10245;20,00000;20,00000
661,80900;64,20306; 69,09454;20,00000;20,00000
663,80900;64,40268; 69,06918;20,00000;20,00000
665,80900;64,60227; 69,05260;20,00000;20,00000
667,80900;64,80256; 69,03437;20,00000;20,00000
669,80900;65,00280; 69,04348;20,00000;20,00000
671,80900;65,20270; 69,04574;20,00000;20,00000
673,80900;65,40208; 69,04630;20,00000;20,00000
675,80900;65,60228; 69,04487;20,00000;20,00000
677,80900;65,80204; 69,04394;20,00000;20,00000
679,80900;66,00198; 69,04174;20,00000;20,00000
681,80900;66,20211; 69,03444;20,00000;20,00000
683,80900;66,40219; 69,02351;20,00000;20,00000
685,80900;66,60228; 69,02505;20,00000;20,00000
687,80900;66,80312; 69,01398;20,00000;20,00000
689,80900;67,00378; 68,99897;20,00000;20,00000
691,80900;67,20318; 69,02036;20,00000;20,00000
693,80900;67,40230; 69,02999;20,00000;20,00000
695,80900;67,60179; 69,01001;20,00000;20,00000
697,80900;67,80154; 68,99253;20,00000;20,00000
699,80900;68,00109; 68,98314;20,00000;20,00000
701,80900;68,20102; 68,98392;20,00000;20,00000
703,80900;68,40095; 68,98552;20,00000;20,00000
705,80900;68,60003; 68,98631;20,00000;20,00000
707,80900;68,80003; 68,98710;20,00000;20,00000
709,80900;68,99994; 68,98868;20,00000;20,00000
711,80900;69,20069; 68,98948;20,00000;20,00000
713,80900;69,40108; 68,98868;20,00000;20,00000
715,80900;69,60122; 68,98780;20,00000;20,00000
717,80900;69,80198; 68,98711;20,00000;20,00000
719,80900;70,00154; 68,98710;20,00000;20,00000
721,80900;70,20183; 68,98523;20,00000;20,00000
723,80900;70,40145; 68,97755;20,00000;20,00000
725,80900;70,60092; 68,97526;20,00000;20,00000
727,80900;70,80086; 68,96261;20,00000;20,00000
729,80900;71,00010; 68,95465;20,00000;20,00000
731,80900;71,20044; 68,94989;20,00000;20,00000
733,80900;71,40096; 68,94907;20,00000;20,00000
735,80900;71,60068; 68,93173;20,00000;20,00000
737,80900;71,80074; 68,93321;20,00000;20,00000
739,80900;72,00030; 68,91904;20,00000;20,00000
741,80900;72,19990; 68,89057;20,00000;20,00000
743,80900;72,39991; 68,88028;20,00000;20,00000
745,80900;72,59991; 68,86524;20,00000;20,00000
747,80900;72,79992; 68,83754;20,00000;20,00000
749,80900;73,00030; 68,81769;20,00000;20,00000
751,80900;73,20077; 68,78685;20,00000;20,00000
753,80900;73,40086; 68,75255;20,00000;20,00000
755,80900;73,60157; 68,71064;20,00000;20,00000
757,80900;73,80194; 68,66785;20,00000;20,00000
759,80900;74,00248; 68,62383;20,00000;20,00000
761,80900;74,20347; 68,59439;20,00000;20,00000
763,80900;74,40372; 68,52984;20,00000;20,00000
765,80900;74,60277; 68,47229;20,00000;20,00000
767,80900;74,80177; 68,41763;20,00000;20,00000
769,80900;75,00031; 68,35870;20,00000;20,00000
771,80900;75,19795; 68,27241;20,00000;20,00000
773,80900;75,39206; 68,20495;20,00000;20,00000
775,80900;75,58725; 68,13100;20,00000;20,00000
777,80900;75,78500; 68,05367;20,00000;20,00000
779,80900;75,98487; 67,96841;20,00000;20,00000
781,80900;76,18704; 67,87081;20,00000;20,00000
783,80900;76,39015; 67,78976;20,00000;20,00000
785,80900;76,59301; 67,68151;20,00000;20,00000
787,80900;76,79578; 67,59893;20,00000;20,00000
789,80900;76,99801; 67,48204;20,00000;20,00000
791,80900;77,19961; 67,37672;20,00000;20,00000
793,80900;77,40037; 67,28392;20,00000;20,00000
795,80900;77,60051; 67,17149;20,00000;20,00000
797,80900;77,79966; 67,06911;20,00000;20,00000
799,80900;77,99833; 66,93661;20,00000;20,00000
801,80900;78,19689; 66,81983;20,00000;20,00000
803,80900;78,39573; 66,68130;20,00000;20,00000
805,80900;78,59458; 66,52562;20,00000;20,00000
807,80900;78,79312; 66,34130;20,00000;20,00000
809,80900;78,99288; 66,17410;20,00000;20,00000
811,80900;79,19266; 65,97496;20,00000;20,00000
813,80900;79,39226; 65,76389;20,00000;20,00000
815,80900;79,59327; 65,51491;20,00000;20,00000
817,80900;79,79450; 65,27713;20,00000;20,00000
819,80900;79,99522; 65,02012;20,00000;20,00000
821,80900;80,19616; 64,73488;20,00000;20,00000
823,80900;80,39707; 64,43326;20,00000;20,00000
825,80900;80,59780; 64,13201;20,00000;20,00000
827,80900;80,79806; 63,80331;20,00000;20,00000
829,80900;80,99758; 63,46664;20,00000;20,00000
831,80900;81,19699; 63,08546;20,00000;20,00000
833,80900;81,39638; 62,68685;20,00000;20,00000
835,80900;81,59581; 62,25179;20,00000;20,00000
837,80900;81,79534; 61,85011;20,00000;20,00000
839,80900;81,99541; 61,42726;20,00000;20,00000
841,80900;82,19477; 60,91399;20,00000;20,00000
843,80900;82,39530; 60,51942;20,00000;20,00000
845,80900;82,59625; 59,98130;20,00000;20,00000
847,80900;82,79723; 59,58200;20,00000;20,00000
849,80900;82,99874; 59,04964;20,00000;20,00000
851,80900;83,19819; 58,61469;20,00000;20,00000
853,80900;83,39944; 58,11126;20,00000;20,00000
855,80900;83,59935; 57,69074;20,00000;20,00000
857,80900;83,79889; 57,18460;20,00000;20,00000
859,80900;83,99890; 56,78468;20,00000;20,00000
861,80900;84,19830; 56,27152;20,00000;20,00000
863,80900;84,39792; 55,90120;20,00000;20,00000
865,80900;84,59753; 55,50350;20,00000;20,00000
867,80900;84,79724; 55,08436;20,00000;20,00000
869,80900;84,99757; 54,69130;20,00000;20,00000
871,80900;85,19686; 54,27560;20,00000;20,00000
873,80900;85,39680; 53,89196;20,00000;20,00000
875,80900;85,59686; 53,50234;20,00000;20,00000
877,80900;85,79644; 53,12603;20,00000;20,00000
879,80900;85,99614; 52,75859;20,00000;20,00000
881,80900;86,19580; 52,38377;20,00000;20,00000
883,80900;86,39561; 52,02444;20,00000;20,00000
885,80900;86,59568; 51,65595;20,00000;20,00000
887,80900;86,79599; 51,27128;20,00000;20,00000
889,80900;86,99684; 50,88381;20,00000;20,00000
891,80900;87,19644; 50,48562;20,00000;20,00000
893,80900;87,39668; 50,08587;20,00000;20,00000
895,80900;87,59629; 49,64939;20,00000;20,00000
897,80900;87,79579; 49,22739;20,00000;20,00000
899,80900;87,99515; 48,71186;20,00000;20,00000
901,80900;88,19481; 48,28455;20,00000;20,00000
903,80900;88,39469; 47,76117;20,00000;20,00000
905,80900;88,59464; 47,28400;20,00000;20,00000
907,80900;88,79462; 46,71987;20,00000;20,00000
909,80900;88,99481; 46,17443;20,00000;20,00000
911,80900;89,19517; 45,62221;20,00000;20,00000
913,80900;89,39566; 45,02705;20,00000;20,00000
915,80900;89,59592; 44,40025;20,00000;20,00000
917,80900;89,79635; 43,76248;20,00000;20,00000
919,80900;89,99644; 43,11647;20,00000;20,00000
921,80900;90,19673; 42,40762;20,00000;20,00000
923,80900;90,39714; 41,66609;20,00000;20,00000
925,80900;90,59731; 40,86704;20,00000;20,00000
927,80900;90,79817; 39,99612;20,00000;20,00000
929,80900;90,99870; 39,10154;20,00000;20,00000
931,80900;91,19934; 38,16202;20,00000;20,00000
933,80900;91,40021; 37,07094;20,00000;20,00000
935,80900;91,60078; 35,91616;20,00000;20,00000
937,80900;91,80164; 34,67799;20,00000;20,00000
939,80900;92,00201; 33,38391;20,00000;20,00000
941,80900;92,20092; 32,12002;20,00000;20,00000
943,80900;92,39833; 30,92036;20,00000;20,00000
945,80900;92,59677; 29,74829;20,00000;20,00000
947,80900;92,79492; 28,63158;20,00000;20,00000
949,80900;92,99384; 27,48542;20,00000;20,00000
951,80900;93,19274; 26,35433;20,00000;20,00000
953,80900;93,39222; 25,20062;20,00000;20,00000
955,80900;93,59218; 24,09680;20,00000;20,00000
957,80900;93,79253; 23,00102;20,00000;20,00000
959,80900;93,99248; 21,97713;20,00000;20,00000
961,80900;94,19304; 21,04273;20,00000;20,00000
963,80900;94,39265; 20,19661;20,00000;20,00000
965,80900;94,59275; 19,41699;20,00000;20,00000
967,80900;94,79325; 18,73165;20,00000;20,00000
969,80900;94,99484; 18,13039;20,00000;20,00000
971,80900;95,19532; 17,56089;20,00000;20,00000
973,80900;95,39551; 17,11621;20,00000;20,00000
975,80900;95,59554; 16,73565;20,00000;20,00000
977,80900;95,79580; 16,36120;20,00000;20,00000
979,80900;95,99587; 16,03234;20,00000;20,00000
981,80900;96,19517; 15,73143;20,00000;20,00000
983,80900;96,39485; 15,50666;20,00000;20,00000
985,80900;96,59562; 15,31213;20,00000;20,00000
987,80900;96,79530; 15,13320;20,00000;20,00000
989,80900;96,99485; 14,97156;20,00000;20,00000
991,80900;97,19503; 14,81074;20,00000;20,00000
993,80900;97,39470; 14,65413;20,00000;20,00000
995,80900;97,59500; 14,55141;20,00000;20,00000
997,80900;97,79430; 14,43844;20,00000;20,00000