File: TGA/SiO2@PDA.txt
##Temp./oC	Time/min	Mass/%	Gas Flow(purge1)/(ml/min)	Gas Flow(protective)/(ml/min)
26,582	0	100	20	20
26,55439	0,10101	99,99152	20	20
26,53272	0,20201	99,97803	20	20
26,53563	0,30302	99,95397	20	20
26,56815	0,40403	99,94661	20	20
26,6694	0,50503	99,94274	20	20
26,8171	0,60604	99,90912	20	20
27,02048	0,70705	99,83947	20	20
27,29783	0,80805	99,77268	20	20
27,63209	0,90906	99,73281	20	20
28,01037	1,01007	99,69871	20	20
28,45471	1,11107	99,68693	20	20
28,95026	1,21208	99,66324	20	20
29,4593	1,31309	99,64033	20	20
30,05046	1,41409	99,62372	20	20
30,67252	1,5151	99,59888	20	20
31,3631	1,61611	99,58555	20	20
32,07695	1,71711	99,5727	20	20
32,87167	1,81812	99,55524	20	20
33,68277	1,91913	99,54174	20	20
34,55032	2,02013	99,52981	20	20
35,42977	2,12114	99,5069	20	20
36,37337	2,22215	99,50765	20	20
37,35182	2,32315	99,48962	20	20
38,36516	2,42416	99,48121	20	20
39,40559	2,52516	99,45935	20	20
40,49291	2,62617	99,44025	20	20
41,60854	2,72718	99,42307	20	20
42,72744	2,82818	99,39942	20	20
43,88404	2,92919	99,37726	20	20
45,06937	3,0302	99,35278	20	20
46,27727	3,1312	99,3306	20	20
47,49565	3,23221	99,3142	20	20
48,7224	3,33322	99,28408	20	20
49,94954	3,43422	99,24319	20	20
51,2058	3,53523	99,20618	20	20
52,45291	3,63624	99,16282	20	20
53,70076	3,73724	99,11189	20	20
54,95329	3,83825	99,05095	20	20
56,20423	3,93926	98,99557	20	20
57,45638	4,04026	98,93032	20	20
58,71098	4,14127	98,85928	20	20
59,92344	4,24228	98,77529	20	20
61,1644	4,34328	98,69679	20	20
62,38854	4,44429	98,59969	20	20
63,62359	4,5453	98,48881	20	20
64,83146	4,6463	98,38193	20	20
65,98376	4,74731	98,27043	20	20
67,19949	4,84832	98,15054	20	20
68,34188	4,94932	98,0151	20	20
69,5175	5,05033	97,85905	20	20
70,65445	5,15134	97,72055	20	20
71,78125	5,25234	97,57047	20	20
72,89825	5,35335	97,42877	20	20
74,00356	5,45436	97,27999	20	20
75,09662	5,55536	97,12147	20	20
76,18279	5,65637	96,95872	20	20
77,25268	5,75738	96,78966	20	20
78,31925	5,85838	96,62521	20	20
79,36802	5,95939	96,45728	20	20
80,40225	6,0604	96,28983	20	20
81,44665	6,1614	96,12853	20	20
82,48768	6,26241	95,94999	20	20
83,49804	6,36342	95,7766	20	20
84,51359	6,46442	95,60757	20	20
85,53847	6,56543	95,43803	20	20
86,54123	6,66644	95,2549	20	20
87,55137	6,76744	95,08967	20	20
88,53888	6,86845	94,91656	20	20
89,5517	6,96946	94,74371	20	20
90,55367	7,07046	94,56551	20	20
91,54911	7,17147	94,40619	20	20
92,54241	7,27248	94,22823	20	20
93,54692	7,37348	94,06032	20	20
94,54099	7,47449	93,88388	20	20
95,53959	7,57549	93,71691	20	20
96,53387	7,6765	93,55888	20	20
97,54099	7,77751	93,39542	20	20
98,53222	7,87851	93,21405	20	20
99,52764	7,97952	93,04889	20	20
100,51574	8,08053	92,89344	20	20
101,50188	8,18153	92,74038	20	20
102,50834	8,28254	92,59618	20	20
103,50269	8,38355	92,44956	20	20
104,50699	8,48455	92,29418	20	20
105,49732	8,58556	92,16436	20	20
106,49459	8,68657	92,0199	20	20
107,48697	8,78757	91,89019	20	20
108,49111	8,88858	91,75678	20	20
109,4877	8,98959	91,62228	20	20
110,47935	9,09059	91,49254	20	20
111,47234	9,1916	91,36056	20	20
112,4771	9,29261	91,23917	20	20
113,46982	9,39361	91,13643	20	20
114,46909	9,49462	91,02791	20	20
115,47309	9,59563	90,9146	20	20
116,47775	9,69663	90,78947	20	20
117,46905	9,79764	90,66846	20	20
118,4834	9,89865	90,57793	20	20
119,48171	9,99965	90,46974	20	20
120,49365	10,10066	90,35913	20	20
121,49086	10,20167	90,2663	20	20
122,48438	10,30267	90,17519	20	20
123,50792	10,40368	90,08334	20	20
124,50874	10,50469	90,00352	20	20
125,52067	10,60569	89,91607	20	20
126,52658	10,7067	89,82859	20	20
127,54426	10,80771	89,74811	20	20
128,56136	10,90871	89,66933	20	20
129,55978	11,00972	89,58312	20	20
130,58497	11,11073	89,5208	20	20
131,59841	11,21173	89,4446	20	20
132,61865	11,31274	89,37223	20	20
133,636	11,41375	89,3007	20	20
134,64816	11,51475	89,24093	20	20
135,67229	11,61576	89,18011	20	20
136,68311	11,71677	89,10801	20	20
137,72186	11,81777	89,05193	20	20
138,73471	11,91878	88,9852	20	20
139,75518	12,01979	88,91898	20	20
140,77525	12,12079	88,85957	20	20
141,80457	12,2218	88,80759	20	20
142,80697	12,32281	88,74976	20	20
143,83763	12,42381	88,6962	20	20
144,86009	12,52482	88,64243	20	20
145,88468	12,62583	88,58688	20	20
146,89091	12,72683	88,54651	20	20
147,91415	12,82784	88,50204	20	20
148,93355	12,92884	88,45076	20	20
149,95452	13,02985	88,41609	20	20
150,96413	13,13086	88,37707	20	20
151,98963	13,23186	88,3407	20	20
153,02008	13,33287	88,30614	20	20
154,027	13,43388	88,26688	20	20
155,04758	13,53488	88,244	20	20
156,0603	13,63589	88,21403	20	20
157,06981	13,7369	88,1868	20	20
158,08299	13,8379	88,15095	20	20
159,10093	13,93891	88,1292	20	20
160,1092	14,03992	88,10799	20	20
161,11372	14,14092	88,08848	20	20
162,12992	14,24193	88,06819	20	20
163,13796	14,34294	88,04389	20	20
164,15384	14,44394	88,02533	20	20
165,16819	14,54495	87,99583	20	20
166,17202	14,64596	87,97602	20	20
167,16699	14,74696	87,95651	20	20
168,17624	14,84797	87,93047	20	20
169,18033	14,94898	87,89998	20	20
170,17883	15,04998	87,87711	20	20
171,20736	15,15099	87,8602	20	20
172,17235	15,252	87,84506	20	20
173,20134	15,353	87,83306	20	20
174,20709	15,45401	87,81143	20	20
175,21647	15,55502	87,78801	20	20
176,21772	15,65602	87,77129	20	20
177,21873	15,75703	87,75174	20	20
178,24318	15,85804	87,73629	20	20
179,24412	15,95904	87,71197	20	20
180,24945	16,06005	87,69327	20	20
181,26036	16,16106	87,68056	20	20
182,26201	16,26206	87,6636	20	20
183,29301	16,36307	87,63937	20	20
184,29866	16,46408	87,62034	20	20
185,29546	16,56508	87,60593	20	20
186,32449	16,66609	87,59318	20	20
187,33831	16,7671	87,58009	20	20
188,35924	16,8681	87,55619	20	20
189,3824	16,96911	87,53227	20	20
190,38525	17,07012	87,51613	20	20
191,40458	17,17112	87,49408	20	20
192,42297	17,27213	87,47143	20	20
193,44335	17,37314	87,4542	20	20
194,46344	17,47414	87,432	20	20
195,47957	17,57515	87,41549	20	20
196,47795	17,67616	87,39433	20	20
197,50191	17,77716	87,37477	20	20
198,50887	17,87817	87,35783	20	20
199,51159	17,97917	87,34169	20	20
200,54174	18,08018	87,32557	20	20
201,54694	18,18119	87,30104	20	20
202,5552	18,28219	87,28062	20	20
203,57678	18,3832	87,25257	20	20
204,58581	18,48421	87,22746	20	20
205,59859	18,58521	87,21183	20	20
206,6066	18,68622	87,19841	20	20
207,61567	18,78723	87,17936	20	20
208,63391	18,88823	87,15081	20	20
209,63906	18,98924	87,13599	20	20
210,6494	19,09025	87,11653	20	20
211,64762	19,19125	87,09459	20	20
212,67026	19,29226	87,07076	20	20
213,66321	19,39327	87,04932	20	20
214,69519	19,49427	87,0268	20	20
215,69147	19,59528	87,00948	20	20
216,70158	19,69629	86,9917	20	20
217,72934	19,79729	86,96737	20	20
218,72182	19,8983	86,95403	20	20
219,73046	19,99931	86,93122	20	20
220,73479	20,10031	86,91507	20	20
221,74803	20,20132	86,90402	20	20
222,75839	20,30233	86,88777	20	20
223,76003	20,40333	86,86564	20	20
224,76976	20,50434	86,8415	20	20
225,78059	20,60535	86,82918	20	20
226,79629	20,70635	86,81408	20	20
227,80323	20,80736	86,79081	20	20
228,80624	20,90837	86,76537	20	20
229,82721	21,00937	86,73811	20	20
230,83256	21,11038	86,72368	20	20
231,84336	21,21139	86,70598	20	20
232,86745	21,31239	86,67755	20	20
233,86735	21,4134	86,65404	20	20
234,89633	21,51441	86,62769	20	20
235,90888	21,61541	86,60568	20	20
236,92131	21,71642	86,58267	20	20
237,92743	21,81743	86,56731	20	20
238,94285	21,91843	86,53973	20	20
239,95745	22,01944	86,50571	20	20
240,96835	22,12045	86,48021	20	20
241,98769	22,22145	86,43952	20	20
242,99438	22,32246	86,41066	20	20
244,00478	22,42347	86,39092	20	20
245,01161	22,52447	86,3626	20	20
246,01921	22,62548	86,33765	20	20
247,02717	22,72648	86,31413	20	20
248,01851	22,82749	86,28863	20	20
249,03901	22,9285	86,25807	20	20
250,06112	23,0295	86,23948	20	20
251,06858	23,13051	86,21833	20	20
252,06076	23,23152	86,19702	20	20
253,07481	23,33252	86,1719	20	20
254,09116	23,43353	86,14039	20	20
255,09261	23,53454	86,1173	20	20
256,09134	23,63554	86,08237	20	20
257,10757	23,73655	86,04778	20	20
258,11474	23,83756	86,01549	20	20
259,1324	23,93856	85,98953	20	20
260,13252	24,03957	85,95919	20	20
261,13554	24,14058	85,92699	20	20
262,15447	24,24158	85,88627	20	20
263,16929	24,34259	85,85905	20	20
264,18031	24,4436	85,81853	20	20
265,18911	24,5446	85,77791	20	20
266,20275	24,64561	85,73947	20	20
267,20984	24,74662	85,70479	20	20
268,21856	24,84762	85,6703	20	20
269,23051	24,94863	85,6389	20	20
270,25826	25,04964	85,59906	20	20
271,27284	25,15064	85,55934	20	20
272,25687	25,25165	85,52705	20	20
273,28713	25,35266	85,48204	20	20
274,28579	25,45366	85,45076	20	20
275,31418	25,55467	85,41848	20	20
276,32422	25,65568	85,38072	20	20
277,34521	25,75668	85,34838	20	20
278,3299	25,85769	85,31383	20	20
279,3442	25,9587	85,27739	20	20
280,36103	26,0597	85,23221	20	20
281,36806	26,16071	85,19243	20	20
282,37512	26,26172	85,15853	20	20
283,38177	26,36272	85,11809	20	20
284,40306	26,46373	85,08191	20	20
285,41233	26,56474	85,0404	20	20
286,4104	26,66574	84,99832	20	20
287,42458	26,76675	84,9527	20	20
288,4277	26,86776	84,91047	20	20
289,43481	26,96876	84,87239	20	20
290,43073	27,06977	84,82923	20	20
291,45397	27,17078	84,78779	20	20
292,45168	27,27178	84,74322	20	20
293,46268	27,37279	84,70961	20	20
294,47428	27,4738	84,66575	20	20
295,49247	27,5748	84,62598	20	20
296,49127	27,67581	84,58277	20	20
297,50184	27,77681	84,55319	20	20
298,51457	27,87782	84,52064	20	20
299,51433	27,97883	84,47771	20	20
300,51427	28,07983	84,41624	20	20
301,51668	28,18084	84,36455	20	20
302,5303	28,28185	84,30998	20	20
303,53605	28,38285	84,2629	20	20
304,56586	28,48386	84,20665	20	20
305,56124	28,58487	84,15967	20	20
306,58056	28,68587	84,11348	20	20
307,58546	28,78688	84,05158	20	20
308,59407	28,88789	84,00336	20	20
309,61581	28,98889	83,94158	20	20
310,61798	29,0899	83,88324	20	20
311,61944	29,19091	83,83478	20	20
312,62909	29,29191	83,77702	20	20
313,64988	29,39292	83,72483	20	20
314,66145	29,49393	83,67631	20	20
315,67007	29,59493	83,61549	20	20
316,68086	29,69594	83,55753	20	20
317,6956	29,79695	83,50835	20	20
318,70685	29,89795	83,4498	20	20
319,70352	29,99896	83,39208	20	20
320,73767	30,09997	83,34344	20	20
321,73952	30,20097	83,27582	20	20
322,75015	30,30198	83,21604	20	20
323,76915	30,40299	83,15514	20	20
324,78825	30,50399	83,08722	20	20
325,80288	30,605	83,02791	20	20
326,81396	30,70601	82,97289	20	20
327,82886	30,80701	82,91182	20	20
328,83847	30,90802	82,84789	20	20
329,85048	31,00903	82,79126	20	20
330,85133	31,11003	82,73984	20	20
331,87431	31,21104	82,68744	20	20
332,88365	31,31205	82,63429	20	20
333,88175	31,41305	82,57131	20	20
334,89611	31,51406	82,51134	20	20
335,90499	31,61507	82,44814	20	20
336,91238	31,71607	82,38119	20	20
337,9218	31,81708	82,32182	20	20
338,94499	31,91809	82,25759	20	20
339,94376	32,01909	82,18835	20	20
340,95509	32,1201	82,12704	20	20
341,98551	32,22111	82,05902	20	20
342,98723	32,32211	81,99002	20	20
343,99685	32,42312	81,9271	20	20
345,00989	32,52413	81,8503	20	20
346,02443	32,62513	81,77426	20	20
347,02678	32,72614	81,71011	20	20
348,04785	32,82714	81,64548	20	20
349,04508	32,92815	81,56997	20	20
350,0692	33,02916	81,50131	20	20
351,06849	33,13016	81,43359	20	20
352,08223	33,23117	81,36953	20	20
353,08833	33,33218	81,3044	20	20
354,09361	33,43318	81,2296	20	20
355,09516	33,53419	81,14293	20	20
356,10226	33,6352	81,05288	20	20
357,11564	33,7362	80,97464	20	20
358,12615	33,83721	80,88349	20	20
359,12733	33,93822	80,80331	20	20
360,13401	34,03922	80,72497	20	20
361,13245	34,14023	80,63438	20	20
362,15076	34,24124	80,5596	20	20
363,15426	34,34224	80,48365	20	20
364,1608	34,44325	80,40599	20	20
365,17233	34,54426	80,32657	20	20
366,18065	34,64526	80,25207	20	20
367,18708	34,74627	80,17796	20	20
368,1975	34,84728	80,10075	20	20
369,20122	34,94828	80,03715	20	20
370,20396	35,04929	79,96267	20	20
371,22275	35,1503	79,87897	20	20
372,22427	35,2513	79,81166	20	20
373,24205	35,35231	79,73323	20	20
374,25535	35,45332	79,64551	20	20
375,26356	35,55432	79,5505	20	20
376,26847	35,65533	79,47147	20	20
377,29154	35,75634	79,38585	20	20
378,29252	35,85734	79,30827	20	20
379,29266	35,95835	79,23305	20	20
380,30656	36,05936	79,15928	20	20
381,32349	36,16036	79,07535	20	20
382,32423	36,26137	79,0025	20	20
383,34835	36,36238	78,90981	20	20
384,34872	36,46338	78,83444	20	20
385,35979	36,56439	78,76209	20	20
386,36987	36,6654	78,67905	20	20
387,38293	36,7664	78,60607	20	20
388,37657	36,86741	78,52954	20	20
389,4017	36,96842	78,44629	20	20
390,41994	37,06942	78,36697	20	20
391,42729	37,17043	78,28023	20	20
392,43475	37,27144	78,19688	20	20
393,44437	37,37244	78,12072	20	20
394,4572	37,47345	78,03435	20	20
395,47217	37,57446	77,94964	20	20
396,46252	37,67546	77,86238	20	20
397,4823	37,77647	77,78053	20	20
398,47951	37,87748	77,69416	20	20
399,49011	37,97848	77,62247	20	20
400,50868	38,07949	77,54581	20	20
401,50889	38,18049	77,46801	20	20
402,52207	38,2815	77,39391	20	20
403,53447	38,38251	77,31039	20	20
404,53483	38,48351	77,23395	20	20
405,55049	38,58452	77,15444	20	20
406,54855	38,68553	77,0654	20	20
407,55784	38,78653	76,98527	20	20
408,57046	38,88754	76,89862	20	20
409,58038	38,98855	76,82316	20	20
410,59421	39,08955	76,73242	20	20
411,61669	39,19056	76,64827	20	20
412,61544	39,29157	76,55946	20	20
413,62915	39,39257	76,47317	20	20
414,64302	39,49358	76,38642	20	20
415,65639	39,59459	76,30468	20	20
416,66529	39,69559	76,21875	20	20
417,68393	39,7966	76,13869	20	20
418,68586	39,89761	76,05784	20	20
419,70244	39,99861	75,97419	20	20
420,71693	40,09962	75,8932	20	20
421,72844	40,20063	75,81072	20	20
422,72823	40,30163	75,71805	20	20
423,7516	40,40264	75,64218	20	20
424,74349	40,50365	75,56635	20	20
425,76312	40,60465	75,4804	20	20
426,77095	40,70566	75,40926	20	20
427,79646	40,80667	75,32568	20	20
428,80081	40,90767	75,24369	20	20
429,81296	41,00868	75,15897	20	20
430,81013	41,10969	75,06543	20	20
431,8276	41,21069	74,98123	20	20
432,84374	41,3117	74,90315	20	20
433,84581	41,41271	74,8291	20	20
434,85391	41,51371	74,74236	20	20
435,86236	41,61472	74,66	20	20
436,87969	41,71573	74,572	20	20
437,88042	41,81673	74,49225	20	20
438,89243	41,91774	74,41483	20	20
439,90573	42,01875	74,32477	20	20
440,91246	42,11975	74,24364	20	20
441,91569	42,22076	74,16345	20	20
442,93418	42,32177	74,07549	20	20
443,94233	42,42277	73,99309	20	20
444,95095	42,52378	73,90643	20	20
445,98044	42,62479	73,82327	20	20
446,98979	42,72579	73,73415	20	20
447,99993	42,8268	73,64034	20	20
449,00172	42,92781	73,55368	20	20
450,0165	43,02881	73,46831	20	20
451,02216	43,12982	73,38715	20	20
452,0318	43,23082	73,3008	20	20
453,05925	43,33183	73,21451	20	20
454,0588	43,43284	73,13595	20	20
455,08236	43,53384	73,05313	20	20
456,08213	43,63485	72,96145	20	20
457,08709	43,73586	72,87217	20	20
458,08711	43,83686	72,79925	20	20
459,0874	43,93787	72,71741	20	20
460,08791	44,03888	72,64513	20	20
461,11203	44,13988	72,54937	20	20
462,11247	44,24089	72,46775	20	20
463,12838	44,3419	72,38145	20	20
464,13106	44,4429	72,2888	20	20
465,1358	44,54391	72,19846	20	20
466,15041	44,64492	72,12255	20	20
467,15793	44,74592	72,03016	20	20
468,16829	44,84693	71,95203	20	20
469,16901	44,94794	71,87193	20	20
470,17658	45,04894	71,78248	20	20
471,19649	45,14995	71,6982	20	20
472,20104	45,25096	71,60909	20	20
473,21658	45,35196	71,51615	20	20
474,22693	45,45297	71,43692	20	20
475,23626	45,55398	71,35183	20	20
476,24835	45,65498	71,26475	20	20
477,25535	45,75599	71,18255	20	20
478,26888	45,857	71,08992	20	20
479,27674	45,958	70,99816	20	20
480,27957	46,05901	70,90979	20	20
481,31117	46,16002	70,82009	20	20
482,30997	46,26102	70,72316	20	20
483,31436	46,36203	70,65271	20	20
484,32766	46,46304	70,57119	20	20
485,33521	46,56404	70,48255	20	20
486,35404	46,66505	70,39988	20	20
487,35789	46,76606	70,3138	20	20
488,3834	46,86706	70,22669	20	20
489,38472	46,96807	70,13429	20	20
490,4012	47,06908	70,04675	20	20
491,41278	47,17008	69,95873	20	20
492,41684	47,27109	69,88452	20	20
493,43136	47,3721	69,80418	20	20
494,43651	47,4731	69,7307	20	20
495,45041	47,57411	69,65649	20	20
496,45908	47,67512	69,57203	20	20
497,47144	47,77612	69,48932	20	20
498,48489	47,87713	69,40022	20	20
499,48911	47,97814	69,30158	20	20
500,5017	48,07914	69,2066	20	20
501,50855	48,18015	69,11173	20	20
502,51558	48,28115	69,02156	20	20
503,52274	48,38216	68,9341	20	20
504,5341	48,48317	68,84407	20	20
505,55027	48,58417	68,7587	20	20
506,55573	48,68518	68,66599	20	20
507,56848	48,78619	68,59736	20	20
508,57079	48,88719	68,50508	20	20
509,58879	48,9882	68,42761	20	20
510,57872	49,08921	68,3412	20	20
511,58413	49,19021	68,2579	20	20
512,61047	49,29122	68,17738	20	20
513,61401	49,39223	68,09847	20	20
514,62688	49,49323	68,01383	20	20
515,63181	49,59424	67,92637	20	20
516,64202	49,69525	67,85262	20	20
517,65178	49,79625	67,7696	20	20
518,65931	49,89726	67,68593	20	20
519,66855	49,99827	67,60968	20	20
520,67441	50,09927	67,52627	20	20
521,67792	50,20028	67,44701	20	20
522,68681	50,30129	67,36396	20	20
523,70483	50,40229	67,27221	20	20
524,70321	50,5033	67,17987	20	20
525,71934	50,60431	67,10815	20	20
526,72821	50,70531	67,03498	20	20
527,74078	50,80632	66,95442	20	20
528,75773	50,90733	66,88023	20	20
529,77637	51,00833	66,80124	20	20
530,77656	51,10934	66,72858	20	20
531,79044	51,21035	66,65312	20	20
532,80959	51,31135	66,57447	20	20
533,82047	51,41236	66,49369	20	20
534,83745	51,51337	66,41437	20	20
535,86191	51,61437	66,33002	20	20
536,8742	51,71538	66,26026	20	20
537,88568	51,81639	66,17261	20	20
538,90196	51,91739	66,10421	20	20
539,89505	52,0184	66,03793	20	20
540,90908	52,11941	65,95955	20	20
541,92253	52,22041	65,87979	20	20
542,9293	52,32142	65,79589	20	20
543,93554	52,42243	65,72282	20	20
544,94422	52,52343	65,6416	20	20
545,96239	52,62444	65,56506	20	20
546,96849	52,72545	65,49647	20	20
547,97161	52,82645	65,4288	20	20
548,98843	52,92746	65,34944	20	20
549,98176	53,02847	65,27805	20	20
550,99501	53,12947	65,20468	20	20
551,99383	53,23048	65,12453	20	20
552,99838	53,33148	65,04221	20	20
554,00933	53,43249	64,96651	20	20
555,00904	53,5335	64,89973	20	20
556,0189	53,6345	64,82913	20	20
557,0317	53,73551	64,75512	20	20
558,03235	53,83652	64,68462	20	20
559,03441	53,93752	64,61016	20	20
560,05127	54,03853	64,53856	20	20
561,05712	54,13954	64,46263	20	20
562,07189	54,24054	64,38339	20	20
563,08459	54,34155	64,32072	20	20
564,09516	54,44256	64,24945	20	20
565,11613	54,54356	64,18467	20	20
566,12624	54,64457	64,11834	20	20
567,15187	54,74558	64,05054	20	20
568,16012	54,84658	63,98223	20	20
569,17131	54,94759	63,90869	20	20
570,1913	55,0486	63,8401	20	20
571,194	55,1496	63,76938	20	20
572,21673	55,25061	63,70563	20	20
573,21677	55,35162	63,64319	20	20
574,22394	55,45262	63,57342	20	20
575,24943	55,55363	63,50028	20	20
576,25177	55,65464	63,43565	20	20
577,27781	55,75564	63,36991	20	20
578,28145	55,85665	63,3034	20	20
579,2911	55,95766	63,24252	20	20
580,30822	56,05866	63,17985	20	20
581,32263	56,15967	63,12705	20	20
582,32333	56,26068	63,06105	20	20
583,33773	56,36168	62,99588	20	20
584,33495	56,46269	62,93948	20	20
585,35649	56,5637	62,8805	20	20
586,37259	56,6647	62,81819	20	20
587,37859	56,76571	62,75845	20	20
588,39449	56,86672	62,69182	20	20
589,40591	56,96772	62,62438	20	20
590,42498	57,06873	62,57428	20	20
591,44433	57,16974	62,51162	20	20
592,43979	57,27074	62,46152	20	20
593,4559	57,37175	62,39707	20	20
594,47254	57,47276	62,33882	20	20
595,48398	57,57376	62,2791	20	20
596,49004	57,67477	62,21791	20	20
597,50791	57,77578	62,15947	20	20
598,49994	57,87678	62,09071	20	20
599,50756	57,97779	62,02829	20	20
600,52461	58,0788	61,96968	20	20
601,52904	58,1798	61,92237	20	20
602,53966	58,28081	61,86563	20	20
603,53661	58,38181	61,80779	20	20
604,55259	58,48282	61,74901	20	20
605,56706	58,58383	61,69643	20	20
606,58248	58,68483	61,63811	20	20
607,59365	58,78584	61,57904	20	20
608,59258	58,88685	61,52186	20	20
609,60426	58,98785	61,46294	20	20
610,61374	59,08886	61,40447	20	20
611,62759	59,18987	61,34064	20	20
612,65781	59,29087	61,28817	20	20
613,66441	59,39188	61,23321	20	20
614,67612	59,49289	61,17728	20	20
615,6867	59,59389	61,11761	20	20
616,68946	59,6949	61,06258	20	20
617,70288	59,79591	61,01059	20	20
618,72186	59,89691	60,96149	20	20
619,72451	59,99792	60,90562	20	20
620,746	60,09893	60,85246	20	20
621,75833	60,19993	60,79997	20	20
622,74138	60,30094	60,74174	20	20
623,76131	60,40195	60,70653	20	20
624,77872	60,50295	60,64758	20	20
625,7781	60,60396	60,5926	20	20
626,7821	60,70497	60,53275	20	20
627,80069	60,80597	60,47501	20	20
628,80822	60,90698	60,4239	20	20
629,81761	61,00799	60,37024	20	20
630,8347	61,10899	60,31272	20	20
631,83599	61,21	60,26442	20	20
632,83779	61,31101	60,21175	20	20
633,85078	61,41201	60,15476	20	20
634,86134	61,51302	60,10358	20	20
635,88198	61,61403	60,04262	20	20
636,88543	61,71503	59,99568	20	20
637,89136	61,81604	59,94699	20	20
638,90462	61,91705	59,8893	20	20
639,90899	62,01805	59,83867	20	20
640,92007	62,11906	59,77963	20	20
641,94864	62,22007	59,73391	20	20
642,95783	62,32107	59,69325	20	20
643,95711	62,42208	59,63958	20	20
644,97599	62,52309	59,58941	20	20
645,99303	62,62409	59,54099	20	20
647,01037	62,7251	59,48819	20	20
648,01403	62,82611	59,43918	20	20
649,02737	62,92711	59,39022	20	20
650,04497	63,02812	59,33151	20	20
651,04574	63,12913	59,27582	20	20
652,05328	63,23013	59,22602	20	20
653,0634	63,33114	59,16718	20	20
654,08281	63,43214	59,1173	20	20
655,09681	63,53315	59,06325	20	20
656,10096	63,63416	59,00794	20	20
657,11772	63,73516	58,95647	20	20
658,13351	63,83617	58,89514	20	20
659,15281	63,93718	58,85882	20	20
660,17073	64,03818	58,81105	20	20
661,18784	64,13919	58,76148	20	20
662,20199	64,2402	58,70639	20	20
663,21109	64,3412	58,65535	20	20
664,22711	64,44221	58,6069	20	20
665,2426	64,54322	58,55664	20	20
666,25188	64,64422	58,51131	20	20
667,2679	64,74523	58,45443	20	20
668,26613	64,84624	58,41313	20	20
669,28109	64,94724	58,37106	20	20
670,2979	65,04825	58,30904	20	20
671,30539	65,14926	58,26596	20	20
672,33367	65,25026	58,21274	20	20
673,3436	65,35127	58,15191	20	20
674,35026	65,45228	58,10448	20	20
675,36911	65,55328	58,03971	20	20
676,37897	65,65429	57,97343	20	20
677,4063	65,7553	57,91303	20	20
678,42261	65,8563	57,83877	20	20
679,43364	65,95731	57,75953	20	20
680,45156	66,05832	57,68183	20	20
681,46179	66,15932	57,60399	20	20
682,46718	66,26033	57,52674	20	20
683,45282	66,36134	57,46514	20	20
684,44514	66,46234	57,41148	20	20
685,43527	66,56335	57,37363	20	20
686,41359	66,66436	57,34053	20	20
687,38702	66,76536	57,31205	20	20
688,38338	66,86637	57,29387	20	20
689,36986	66,96738	57,27377	20	20
690,35862	67,06838	57,2543	20	20
691,37206	67,16939	57,24594	20	20
692,37287	67,2704	57,23661	20	20
693,37321	67,3714	57,23148	20	20
694,38804	67,47241	57,22283	20	20
695,39651	67,57342	57,21264	20	20
696,41603	67,67442	57,1999	20	20
697,44195	67,77543	57,18918	20	20
698,47303	67,87644	57,17985	20	20
699,47766	67,97744	57,17312	20	20
700,49534	68,07845	57,16704	20	20
701,51933	68,17946	57,16362	20	20
702,54648	68,28046	57,15769	20	20
703,56457	68,38147	57,15182	20	20
704,58671	68,48247	57,14577	20	20
705,59516	68,58348	57,13821	20	20
706,63136	68,68449	57,13543	20	20
707,64867	68,78549	57,13599	20	20
708,65282	68,8865	57,13434	20	20
709,67938	68,98751	57,13072	20	20
710,69746	69,08851	57,12838	20	20
711,70003	69,18952	57,12582	20	20
712,71526	69,29053	57,11988	20	20
713,72842	69,39153	57,1165	20	20
714,73209	69,49254	57,11137	20	20
715,7466	69,59355	57,1037	20	20
716,75082	69,69455	57,09728	20	20
717,76094	69,79556	57,09559	20	20
718,7499	69,89657	57,09384	20	20
719,77212	69,99757	57,09212	20	20
720,77285	70,09858	57,08813	20	20
721,77475	70,19959	57,08388	20	20
722,78207	70,30059	57,08297	20	20
723,78434	70,4016	57,07878	20	20
724,79011	70,50261	57,0761	20	20
725,80217	70,60361	57,06592	20	20
726,80514	70,70462	57,06003	20	20
727,82383	70,80563	57,05659	20	20
728,82141	70,90663	57,05699	20	20
729,81513	71,00764	57,05776	20	20
730,83283	71,10865	57,05876	20	20
731,8325	71,20965	57,05617	20	20
732,85463	71,31066	57,05361	20	20
733,85334	71,41167	57,04932	20	20
734,87673	71,51267	57,04881	20	20
735,88171	71,61368	57,05018	20	20
736,8877	71,71469	57,05464	20	20
737,8981	71,81569	57,04721	20	20
738,92064	71,9167	57,04357	20	20
739,93641	72,01771	57,04356	20	20
740,946	72,11871	57,04113	20	20
741,95606	72,21972	57,03603	20	20
742,97055	72,32073	57,0301	20	20
744,00059	72,42173	57,02678	20	20
745,01661	72,52274	57,02678	20	20
746,02049	72,62375	57,02586	20	20
747,03897	72,72475	57,01465	20	20
748,06005	72,82576	57,00823	20	20
749,07643	72,92677	57,00313	20	20
750,09941	73,02777	57,00313	20	20
751,10771	73,12878	57,00074	20	20
752,12285	73,22979	56,99573	20	20
753,13411	73,33079	56,99147	20	20
754,14605	73,4318	56,99069	20	20
755,16365	73,5328	56,99154	20	20
756,16751	73,63381	56,99236	20	20
757,16975	73,73482	56,99196	20	20
758,18383	73,83582	56,98977	20	20
759,1941	73,93683	56,98825	20	20
760,20555	74,03784	56,97728	20	20
761,21473	74,13884	56,97144	20	20
762,23155	74,23985	56,96718	20	20
763,24011	74,34086	56,96465	20	20
764,23184	74,44186	56,9655	20	20
765,25697	74,54287	56,96857	20	20
766,26248	74,64388	56,97389	20	20
767,27182	74,74488	56,97419	20	20
768,28953	74,84589	56,97383	20	20
769,28392	74,9469	56,97321	20	20
770,30515	75,0479	56,97149	20	20
771,31699	75,14891	56,96134	20	20
772,3221	75,24992	56,95878	20	20
773,32534	75,35092	56,94794	20	20
774,34226	75,45193	56,94692	20	20
775,35112	75,55294	56,94859	20	20
776,35197	75,65394	56,94451	20	20
777,35857	75,75495	56,93867	20	20
778,37586	75,85596	56,93437	20	20
779,37727	75,95696	56,93195	20	20
780,38306	76,05797	56,92538	20	20
781,4036	76,15898	56,91937	20	20
782,40283	76,25998	56,91765	20	20
783,41062	76,36099	56,91596	20	20
784,42822	76,462	56,90306	20	20
785,44291	76,563	56,89308	20	20
786,45359	76,66401	56,88911	20	20
787,45887	76,76502	56,88399	20	20
788,4674	76,86602	56,88408	20	20
789,48628	76,96703	56,88408	20	20
790,50184	77,06804	56,88317	20	20
791,51024	77,16904	56,88552	20	20
792,53053	77,27005	56,89751	20	20
793,53412	77,37106	56,90424	20	20
794,55241	77,47206	56,90324	20	20
795,56097	77,57307	56,89559	20	20
796,57126	77,67408	56,88987	20	20
797,5731	77,77508	56,88283	20	20
798,5966	77,87609	56,87679	20	20
799,61258	77,9771	56,87495	20	20
800,6166	78,0781	56,8716	20	20
801,62246	78,17911	56,86812	20	20
802,64619	78,28012	56,86729	20	20
803,6459	78,38112	56,86729	20	20
804,6586	78,48213	56,86729	20	20
805,67538	78,58313	56,86635	20	20
806,68107	78,68414	56,86403	20	20
807,70317	78,78515	56,86097	20	20
808,70707	78,88615	56,85077	20	20
809,71751	78,98716	56,8441	20	20
810,71931	79,08817	56,83804	20	20
811,72583	79,18917	56,82877	20	20
812,7277	79,29018	56,81523	20	20
813,74835	79,39119	56,81275	20	20
814,75356	79,49219	56,80734	20	20
815,74532	79,5932	56,79728	20	20
816,76223	79,69421	56,79216	20	20
817,77117	79,79521	56,78738	20	20
818,77856	79,89622	56,78618	20	20
819,79679	79,99723	56,78272	20	20
820,8043	80,09823	56,77925	20	20
821,8192	80,19924	56,77334	20	20
822,82837	80,30025	56,76739	20	20
823,83709	80,40125	56,77923	20	20
824,86341	80,50226	56,78267	20	20
825,86671	80,60327	56,78595	20	20
826,86982	80,70427	56,78814	20	20
827,89462	80,80528	56,78867	20	20
828,90511	80,90629	56,78592	20	20
829,90365	81,00729	56,78271	20	20
830,93344	81,1083	56,77582	20	20
831,94021	81,20931	56,76837	20	20
832,94531	81,31031	56,7573	20	20
833,95745	81,41132	56,75138	20	20
834,95799	81,51233	56,75312	20	20
835,96405	81,61333	56,75281	20	20
836,97781	81,71434	56,75659	20	20
837,98572	81,81535	56,74934	20	20
838,99603	81,91635	56,74478	20	20
840,01325	82,01736	56,74133	20	20
841,01851	82,11837	56,7431	20	20
842,02655	82,21937	56,74557	20	20
843,0436	82,32038	56,74557	20	20
844,037	82,42139	56,74557	20	20
845,05909	82,52239	56,74557	20	20
846,06569	82,6234	56,74557	20	20
847,08443	82,72441	56,74482	20	20
848,08466	82,82541	56,7395	20	20
849,10691	82,92642	56,72407	20	20
850,1217	83,02743	56,71806	20	20
851,13409	83,12843	56,71372	20	20
852,14328	83,22944	56,7095	20	20
853,15231	83,33045	56,70698	20	20
854,16401	83,43145	56,7078	20	20
855,17437	83,53246	56,70779	20	20
856,18666	83,63346	56,70617	20	20
857,19977	83,73447	56,70147	20	20
858,21313	83,83548	56,69558	20	20
859,23486	83,93648	56,69056	20	20
860,23993	84,03749	56,68539	20	20
861,24046	84,1385	56,67773	20	20
862,24574	84,2395	56,6726	20	20
863,25543	84,34051	56,66748	20	20
864,28505	84,44152	56,66077	20	20
865,28242	84,54252	56,65578	20	20
866,29804	84,64353	56,65744	20	20
867,30397	84,74454	56,65743	20	20
868,3017	84,84554	56,65743	20	20
869,30454	84,94655	56,65603	20	20
870,3071	85,04756	56,65075	20	20
871,31832	85,14856	56,64739	20	20
872,31476	85,24957	56,6448	20	20
873,31652	85,35058	56,6423	20	20
874,31963	85,45158	56,63809	20	20
875,33031	85,55259	56,63466	20	20
876,33462	85,6536	56,62489	20	20
877,33712	85,7546	56,61593	20	20
878,35198	85,85561	56,60953	20	20
879,35643	85,95662	56,60947	20	20
880,36848	86,05762	56,60695	20	20
881,38093	86,15863	56,60207	20	20
882,39849	86,25964	56,59785	20	20
883,41441	86,36064	56,60459	20	20
884,42482	86,46165	56,61124	20	20
885,44792	86,56266	56,60703	20	20
886,46371	86,66366	56,60341	20	20
887,473	86,76467	56,59986	20	20
888,48828	86,86568	56,59776	20	20
889,5107	86,96668	56,5986	20	20
890,51584	87,06769	56,5938	20	20
891,53708	87,1687	56,59029	20	20
892,55297	87,2697	56,59028	20	20
893,56646	87,37071	56,59028	20	20
894,5741	87,47172	56,59016	20	20
895,58455	87,57272	56,5808	20	20
896,58605	87,67373	56,57549	20	20
897,60832	87,77474	56,57011	20	20
898,608	87,87574	56,55857	20	20
899,61389	87,97675	56,55806	20	20
900,61976	88,07776	56,55506	20	20
901,62842	88,17876	56,55495	20	20
902,64161	88,27977	56,55588	20	20
903,6631	88,38078	56,55486	20	20
904,66396	88,48178	56,53889	20	20
905,68129	88,58279	56,53154	20	20
906,67812	88,68379	56,53152	20	20
907,69193	88,7848	56,53152	20	20
908,71671	88,88581	56,53152	20	20
909,72053	88,98681	56,53151	20	20
910,73726	89,08782	56,53133	20	20
911,73735	89,18883	56,52981	20	20
912,74828	89,28983	56,52653	20	20
913,77589	89,39084	56,52653	20	20
914,78528	89,49185	56,52635	20	20
915,7848	89,59285	56,52495	20	20
916,79282	89,69386	56,52397	20	20
917,80624	89,79487	56,51976	20	20
918,82331	89,89587	56,51715	20	20
919,83259	89,99688	56,52122	20	20
920,84831	90,09789	56,52487	20	20
921,85647	90,19889	56,52813	20	20
922,86305	90,2999	56,53152	20	20
923,87287	90,40091	56,53152	20	20
924,88135	90,50191	56,5315	20	20
925,89635	90,60292	56,52046	20	20
926,90545	90,70393	56,51442	20	20
927,91018	90,80493	56,5122	20	20
928,92082	90,90594	56,5093	20	20
929,93211	91,00695	56,51138	20	20
930,94915	91,10795	56,51221	20	20
931,95001	91,20896	56,51211	20	20
932,96067	91,30997	56,51138	20	20
933,97515	91,41097	56,50798	20	20
934,99048	91,51198	56,50293	20	20
935,98752	91,61299	56,4926	20	20
936,99525	91,71399	56,4867	20	20
938,00739	91,815	56,48827	20	20
939,0151	91,91601	56,49123	20	20
940,0314	92,01701	56,49071	20	20
941,04123	92,11802	56,49281	20	20
942,0462	92,21903	56,50033	20	20
943,06032	92,32003	56,4887	20	20
944,06639	92,42104	56,46935	20	20
945,08322	92,52205	56,47031	20	20
946,1063	92,62305	56,4728	20	20
947,10914	92,72406	56,47822	20	20
948,12402	92,82507	56,47819	20	20
949,13344	92,92607	56,47699	20	20
950,13584	93,02708	56,47678	20	20
951,16335	93,12809	56,47372	20	20
952,1699	93,22909	56,46943	20	20
953,18306	93,3301	56,46604	20	20
954,19655	93,43111	56,46613	20	20
955,20219	93,53211	56,4728	20	20
956,21873	93,63312	56,47461	20	20
957,23263	93,73412	56,47119	20	20
958,2315	93,83513	56,46784	20	20
959,25061	93,93614	56,46402	20	20
960,25499	94,03714	56,45701	20	20
961,25974	94,13815	56,4528	20	20
962,27883	94,23916	56,4451	20	20
963,28971	94,34016	56,44422	20	20
964,29717	94,44117	56,43492	20	20
965,30068	94,54218	56,42398	20	20
966,30613	94,64318	56,43036	20	20
967,32365	94,74419	56,4325	20	20
968,33748	94,8452	56,43597	20	20
969,34001	94,9462	56,43622	20	20
970,34862	95,04721	56,43042	20	20
971,35856	95,14822	56,42086	20	20
972,37151	95,24922	56,4182	20	20
973,38032	95,35023	56,41483	20	20
974,38792	95,45124	56,41318	20	20
975,39925	95,55224	56,41401	20	20
976,40704	95,65325	56,41374	20	20
977,41053	95,75426	56,40903	20	20
978,42039	95,85526	56,4044	20	20
979,43712	95,95627	56,39279	20	20
980,44326	96,05728	56,38576	20	20
981,45759	96,15828	56,37803	20	20
982,46483	96,25929	56,37625	20	20
983,47807	96,3603	56,37621	20	20
984,49051	96,4613	56,37278	20	20
985,49167	96,56231	56,36858	20	20
986,49251	96,66332	56,36862	20	20
987,50934	96,76432	56,36952	20	20
988,51566	96,86533	56,37087	20	20
989,53417	96,96634	56,37106	20	20
990,54013	97,06734	56,36971	20	20
991,55709	97,16835	56,36698	20	20
992,55577	97,26936	56,36363	20	20
993,57848	97,37036	56,36364	20	20
994,57578	97,47137	56,36364	20	20
995,59157	97,57238	56,36284	20	20
996,60242	97,67338	56,36019	20	20
997,61354	97,77439	56,35645	20	20
998,62817	97,8754	56,35269	20	20
999,63901	97,9764	56,35301	20	20