File: FTIR/MoS2_Pristine_1.txt
##TITLE=No Description
##DATA TYPE=INFRARED SPECTRUM
##XUNITS=1/CM
##YUNITS=%T
399.452  	15.5508
402.326  	14.8727
405.2  	14.3983
408.073  	14.7432
410.947  	13.6416
413.821  	14.361
416.695  	13.3618
419.568  	14.3645
422.442  	13.495
425.316  	13.3049
428.19  	13.2735
431.063  	13.6796
433.937  	13.3648
436.811  	13.7649
439.685  	13.2227
442.558  	13.9591
445.432  	12.9995
448.306  	12.6884
451.18  	12.7696
454.053  	12.3698
456.927  	11.4448
459.801  	11.3056
462.675  	10.8058
465.548  	8.454986
468.422  	7.074808
471.296  	11.3304
474.17  	12.6808
477.043  	12.9271
479.917  	12.4496
482.791  	12.1644
485.665  	12.1231
488.538  	11.9339
491.412  	12.1444
494.286  	11.9916
497.16  	11.6832
500.034  	11.7569
502.907  	11.9662
505.781  	11.7997
508.655  	11.5773
511.529  	11.491
514.402  	11.462
517.276  	11.5356
520.15  	11.5949
523.024  	11.6941
525.897  	11.4062
528.771  	11.5949
531.645  	11.3687
534.519  	11.3499
537.392  	11.1119
540.266  	11.1622
543.14  	11.1543
546.014  	11.0476
548.887  	10.9447
551.761  	11.0185
554.635  	10.6843
557.509  	10.4832
560.382  	10.4836
563.256  	10.2534
566.13  	10.2004
569.004  	10.1318
571.877  	9.892219
574.751  	9.865153
577.625  	9.584554
580.499  	9.603133
583.372  	9.423648
586.246  	9.348390
589.12  	9.339858
591.994  	9.282179
594.867  	9.166570
597.741  	9.281623
600.615  	9.231910
603.489  	9.272515
606.362  	9.360345
609.236  	9.356437
612.11  	9.321682
614.984  	9.312299
617.858  	9.335222
620.731  	9.255534
623.605  	9.268581
626.479  	9.150331
629.353  	9.190792
632.226  	9.289389
635.1  	9.424783
637.974  	9.514761
640.848  	9.501959
643.721  	9.586389
646.595  	9.648859
649.469  	9.638055
652.343  	9.592064
655.216  	9.604346
658.09  	9.593768
660.964  	9.586612
663.838  	9.499742
666.711  	9.276163
669.585  	9.646116
672.459  	9.490718
675.333  	9.522525
678.206  	9.557109
681.08  	9.598040
683.954  	9.679040
686.828  	9.713592
689.701  	9.692536
692.575  	9.694539
695.449  	9.626075
698.323  	9.587108
701.196  	9.466996
704.07  	9.462479
706.944  	9.384726
709.818  	9.446305
712.691  	9.379121
715.565  	9.314887
718.439  	9.203615
721.313  	9.130527
724.186  	9.135785
727.06  	9.094103
729.934  	9.072138
732.808  	9.053357
735.681  	9.007742
738.555  	8.917158
741.429  	8.941971
744.303  	8.907511
747.177  	8.840957
750.05  	8.807873
752.924  	8.762360
755.798  	8.753107
758.672  	8.795164
761.545  	8.714942
764.419  	8.703852
767.293  	8.744891
770.167  	8.795329
773.04  	8.740755
775.914  	8.770922
778.788  	8.722936
781.662  	8.731978
784.535  	8.732472
787.409  	8.797664
790.283  	8.799097
793.157  	8.874073
796.03  	8.906228
798.904  	8.883090
801.778  	8.957529
804.652  	8.925753
807.525  	8.977552
810.399  	8.976959
813.273  	8.985320
816.147  	8.994184
819.02  	9.017153
821.894  	9.041235
824.768  	9.070449
827.642  	9.067284
830.515  	9.180710
833.389  	9.175997
836.263  	9.206982
839.137  	9.194891
842.01  	9.187202
844.884  	9.159317
847.758  	9.152667
850.632  	9.128868
853.505  	9.079783
856.379  	9.100261
859.253  	9.142090
862.127  	9.094896
865.001  	9.091368
867.874  	9.027293
870.748  	8.999381
873.622  	8.975277
876.496  	8.944730
879.369  	8.944391
882.243  	8.920772
885.117  	8.869381
887.991  	8.924125
890.864  	8.865130
893.738  	8.819575
896.612  	8.799370
899.486  	8.790900
902.359  	8.741817
905.233  	8.738904
908.107  	8.731161
910.981  	8.703366
913.854  	8.661166
916.728  	8.666123
919.602  	8.686444
922.476  	8.737581
925.349  	8.768101
928.223  	8.796230
931.097  	8.806079
933.971  	8.800902
936.844  	8.860882
939.718  	8.817128
942.592  	8.745238
945.466  	8.698198
948.339  	8.698506
951.213  	8.687992
954.087  	8.693999
956.961  	8.690002
959.834  	8.723368
962.708  	8.764917
965.582  	8.767231
968.456  	8.763359
971.329  	8.760358
974.203  	8.767062
977.077  	8.743721
979.951  	8.740243
982.824  	8.726514
985.698  	8.712524
988.572  	8.729449
991.446  	8.807016
994.32  	8.773527
997.193  	8.791586
1000.07  	8.803260
1002.94  	8.735428
1005.81  	8.729308
1008.69  	8.644794
1011.56  	8.609743
1014.44  	8.528638
1017.31  	8.441674
1020.18  	8.360937
1023.06  	8.360506
1025.93  	8.270404
1028.8  	8.204300
1031.68  	8.162082
1034.55  	8.095790
1037.43  	8.070749
1040.3  	8.070779
1043.17  	8.084757
1046.05  	8.114451
1048.92  	8.124900
1051.79  	8.141890
1054.67  	8.156969
1057.54  	8.180954
1060.42  	8.245576
1063.29  	8.269679
1066.16  	8.295452
1069.04  	8.313532
1071.91  	8.361560
1074.78  	8.305747
1077.66  	8.339590
1080.53  	8.343841
1083.41  	8.357901
1086.28  	8.298383
1089.15  	8.292480
1092.03  	8.247632
1094.9  	8.222190
1097.77  	8.193603
1100.65  	8.184917
1103.52  	8.193890
1106.4  	8.182288
1109.27  	8.144299
1112.14  	8.170551
1115.02  	8.147087
1117.89  	8.160956
1120.76  	8.188977
1123.64  	8.174310
1126.51  	8.184886
1129.39  	8.164829
1132.26  	8.182868
1135.13  	8.206011
1138.01  	8.253005
1140.88  	8.268815
1143.75  	8.318077
1146.63  	8.350678
1149.5  	8.369533
1152.38  	8.407278
1155.25  	8.457212
1158.12  	8.466612
1161  	8.537794
1163.87  	8.535696
1166.74  	8.576646
1169.62  	8.604124
1172.49  	8.676489
1175.37  	8.712656
1178.24  	8.735318
1181.11  	8.781274
1183.99  	8.799595
1186.86  	8.854497
1189.73  	8.870661
1192.61  	8.926463
1195.48  	8.949094
1198.36  	8.977885
1201.23  	9.018436
1204.1  	9.054545
1206.98  	9.109573
1209.85  	9.133169
1212.72  	9.185155
1215.6  	9.234304
1218.47  	9.276615
1221.35  	9.318002
1224.22  	9.355377
1227.09  	9.389938
1229.97  	9.449419
1232.84  	9.499737
1235.72  	9.546283
1238.59  	9.589150
1241.46  	9.622316
1244.34  	9.683275
1247.21  	9.737490
1250.08  	9.787131
1252.96  	9.856699
1255.83  	9.895417
1258.71  	9.930678
1261.58  	9.962004
1264.45  	10.0084
1267.33  	10.0685
1270.2  	10.0535
1273.07  	10.1111
1275.95  	10.16
1278.82  	10.1661
1281.7  	10.1823
1284.57  	10.2029
1287.44  	10.2261
1290.32  	10.2648
1293.19  	10.258
1296.06  	10.2784
1298.94  	10.2866
1301.81  	10.328
1304.69  	10.3452
1307.56  	10.382
1310.43  	10.3883
1313.31  	10.4119
1316.18  	10.4244
1319.05  	10.4613
1321.93  	10.4906
1324.8  	10.5075
1327.68  	10.5242
1330.55  	10.5447
1333.42  	10.58
1336.3  	10.5693
1339.17  	10.5843
1342.04  	10.6321
1344.92  	10.6225
1347.79  	10.6232
1350.67  	10.6234
1353.54  	10.6319
1356.41  	10.6486
1359.29  	10.6328
1362.16  	10.6146
1365.03  	10.6736
1367.91  	10.6451
1370.78  	10.6676
1373.66  	10.6646
1376.53  	10.7284
1379.4  	10.7258
1382.28  	10.709
1385.15  	10.7178
1388.02  	10.7913
1390.9  	10.7923
1393.77  	10.7099
1396.65  	10.8271
1399.52  	10.8644
1402.39  	10.8485
1405.27  	10.8666
1408.14  	10.8999
1411.01  	10.9199
1413.89  	10.9406
1416.76  	10.9007
1419.64  	11.0937
1422.51  	11.0878
1425.38  	11.227
1428.26  	11.1858
1431.13  	11.2451
1434  	11.2167
1436.88  	11.2545
1439.75  	11.2886
1442.63  	11.281
1445.5  	11.2401
1448.37  	11.2881
1451.25  	11.2065
1454.12  	11.1591
1456.99  	11.1155
1459.87  	11.3255
1462.74  	11.1104
1465.62  	11.2208
1468.49  	11.1573
1471.36  	10.9755
1474.24  	11.2585
1477.11  	11.2637
1479.98  	11.1621
1482.86  	11.2288
1485.73  	11.1443
1488.61  	11.1349
1491.48  	11.3058
1494.35  	11.1349
1497.23  	11.1988
1500.1  	11.2334
1502.97  	11.1693
1505.85  	10.9192
1508.72  	11.377
1511.6  	11.1837
1514.47  	11.1597
1517.34  	11.1999
1520.22  	11.0269
1523.09  	11.2562
1525.96  	11.1678
1528.84  	11.2063
1531.71  	11.08
1534.59  	11.2606
1537.46  	10.9344
1540.33  	11.0804
1543.21  	11.1891
1546.08  	11.2061
1548.95  	11.0468
1551.83  	11.1101
1554.7  	11.0984
1557.58  	10.7251
1560.45  	11.5026
1563.32  	11.0598
1566.2  	11.0736
1569.07  	10.9686
1571.94  	11.1196
1574.82  	10.9313
1577.69  	11.1907
1580.57  	11.0456
1583.44  	11.0662
1586.31  	11.0419
1589.19  	11.0222
1592.06  	10.9972
1594.93  	10.9984
1597.81  	11.0312
1600.68  	11.0507
1603.56  	11.0643
1606.43  	11.0401
1609.3  	11.0866
1612.18  	11.0847
1615.05  	10.9339
1617.92  	11.2303
1620.8  	11.0444
1623.67  	11.1593
1626.55  	11.1635
1629.42  	11.267
1632.29  	11.196
1635.17  	11.0655
1638.04  	11.4023
1640.91  	11.2907
1643.79  	11.1527
1646.66  	11.2297
1649.54  	11.4025
1652.41  	10.8748
1655.28  	11.6594
1658.16  	11.3162
1661.03  	11.2581
1663.9  	11.3883
1666.78  	11.2438
1669.65  	11.2757
1672.53  	11.3848
1675.4  	11.3502
1678.27  	11.347
1681.15  	11.3464
1684.02  	11.2701
1686.89  	11.4647
1689.77  	11.4315
1692.64  	11.4208
1695.52  	11.3082
1698.39  	11.3592
1701.26  	11.7856
1704.14  	11.4176
1707.01  	11.5742
1709.88  	11.5437
1712.76  	11.5109
1715.63  	11.5027
1718.51  	11.7082
1721.38  	11.635
1724.25  	11.6498
1727.13  	11.6489
1730  	11.6537
1732.87  	11.5064
1735.75  	11.9751
1738.62  	11.6155
1741.5  	11.7767
1744.37  	11.7858
1747.24  	11.7517
1750.12  	11.8041
1752.99  	11.9654
1755.86  	11.8179
1758.74  	11.9151
1761.61  	11.8815
1764.49  	11.9877
1767.36  	11.8933
1770.23  	11.9235
1773.11  	12.0792
1775.98  	12.0457
1778.85  	12.0182
1781.73  	12.086
1784.6  	12.0752
1787.48  	12.159
1790.35  	12.0131
1793.22  	12.2234
1796.1  	12.1359
1798.97  	12.1372
1801.84  	12.2342
1804.72  	12.2594
1807.59  	12.2142
1810.47  	12.2558
1813.34  	12.3192
1816.21  	12.3105
1819.09  	12.339
1821.96  	12.3441
1824.83  	12.346
1827.71  	12.3412
1830.58  	12.4439
1833.46  	12.4367
1836.33  	12.4599
1839.2  	12.4688
1842.08  	12.4115
1844.95  	12.6121
1847.83  	12.5224
1850.7  	12.5377
1853.57  	12.5605
1856.45  	12.5842
1859.32  	12.6734
1862.19  	12.7821
1865.07  	12.7034
1867.94  	12.6041
1870.82  	12.8415
1873.69  	12.8203
1876.56  	12.7646
1879.44  	12.7783
1882.31  	12.8807
1885.18  	12.8834
1888.06  	12.8874
1890.93  	12.9899
1893.81  	12.9528
1896.68  	13.0217
1899.55  	13.0473
1902.43  	13.1159
1905.3  	13.1009
1908.17  	13.1699
1911.05  	13.285
1913.92  	13.2687
1916.8  	13.239
1919.67  	13.314
1922.54  	13.3937
1925.42  	13.5685
1928.29  	13.5473
1931.16  	13.5786
1934.04  	13.7687
1936.91  	13.7453
1939.79  	13.7219
1942.66  	13.9523
1945.53  	14.112
1948.41  	14.3564
1951.28  	14.1347
1954.15  	14.3005
1957.03  	14.6584
1959.9  	14.8781
1962.78  	15.0283
1965.65  	15.1063
1968.52  	15.4012
1971.4  	15.2103
1974.27  	15.7003
1977.14  	15.8668
1980.02  	15.461
1982.89  	15.4091
1985.77  	15.2704
1988.64  	15.2367
1991.51  	15.1567
1994.39  	15.0925
1997.26  	15.061
2000.13  	15.07
2003.01  	15.3634
2005.88  	15.4736
2008.76  	15.6485
2011.63  	15.8934
2014.5  	15.8048
2017.38  	15.9936
2020.25  	16.0866
2023.12  	15.7642
2026  	16.0995
2028.87  	16.1799
2031.75  	15.9166
2034.62  	15.7348
2037.49  	15.6388
2040.37  	15.5817
2043.24  	15.2896
2046.11  	15.1007
2048.99  	15.2644
2051.86  	14.6937
2054.74  	14.6795
2057.61  	14.5571
2060.48  	14.5688
2063.36  	14.4549
2066.23  	14.2709
2069.1  	14.3277
2071.98  	14.4235
2074.85  	14.3728
2077.73  	14.2799
2080.6  	14.1154
2083.47  	14.1182
2086.35  	14.1322
2089.22  	14.203
2092.09  	14.1018
2094.97  	13.9435
2097.84  	14.147
2100.72  	13.9618
2103.59  	14.1
2106.46  	14.1866
2109.34  	14.1343
2112.21  	13.9599
2115.08  	14.0145
2117.96  	13.9702
2120.83  	14.1099
2123.71  	14.123
2126.58  	14.1882
2129.45  	14.2947
2132.33  	14.5785
2135.2  	14.8468
2138.07  	15.0468
2140.95  	15.0557
2143.82  	14.9415
2146.7  	15.1672
2149.57  	15.3337
2152.44  	15.9334
2155.32  	16.4604
2158.19  	17.2105
2161.06  	16.7485
2163.94  	16.2929
2166.81  	15.9268
2169.69  	15.7229
2172.56  	15.7945
2175.43  	16.165
2178.31  	15.7539
2181.18  	15.458
2184.05  	15.4675
2186.93  	15.4296
2189.8  	15.304
2192.68  	15.2701
2195.55  	15.4414
2198.42  	15.2061
2201.3  	15.234
2204.17  	15.0746
2207.04  	14.9943
2209.92  	14.9075
2212.79  	14.8521
2215.67  	15.0256
2218.54  	14.853
2221.41  	14.7129
2224.29  	14.6236
2227.16  	14.5591
2230.03  	14.7843
2232.91  	14.6981
2235.78  	14.6272
2238.66  	14.5206
2241.53  	14.4386
2244.4  	14.4148
2247.28  	14.3341
2250.15  	14.4207
2253.02  	14.2437
2255.9  	14.2933
2258.77  	14.3585
2261.65  	14.3759
2264.52  	14.3117
2267.39  	14.2769
2270.27  	14.0943
2273.14  	14.0642
2276.01  	14.1907
2278.89  	14.1884
2281.76  	14.0748
2284.64  	14.0304
2287.51  	13.9932
2290.38  	13.9906
2293.26  	13.8946
2296.13  	13.9217
2299  	13.8691
2301.88  	13.902
2304.75  	13.865
2307.63  	13.894
2310.5  	13.8658
2313.37  	13.9172
2316.25  	13.9732
2319.12  	13.805
2321.99  	13.8408
2324.87  	13.9063
2327.74  	13.7742
2330.62  	13.8996
2333.49  	13.9719
2336.36  	13.931
2339.24  	13.9833
2342.11  	13.9869
2344.98  	13.9617
2347.86  	14.1103
2350.73  	13.7962
2353.61  	13.8562
2356.48  	14.0028
2359.35  	13.9825
2362.23  	13.9762
2365.1  	14.0509
2367.97  	14.1009
2370.85  	14.066
2373.72  	14.1257
2376.6  	14.1093
2379.47  	14.1029
2382.34  	14.0936
2385.22  	14.0782
2388.09  	14.0642
2390.96  	14.0665
2393.84  	14.0447
2396.71  	14.0833
2399.59  	14.1117
2402.46  	14.1315
2405.33  	14.1112
2408.21  	14.1073
2411.08  	14.1253
2413.95  	14.0628
2416.83  	14.1116
2419.7  	14.1513
2422.58  	14.1799
2425.45  	14.1893
2428.32  	14.1529
2431.2  	14.2226
2434.07  	14.1925
2436.94  	14.2094
2439.82  	14.188
2442.69  	14.2615
2445.57  	14.2266
2448.44  	14.2331
2451.31  	14.2332
2454.19  	14.2794
2457.06  	14.2571
2459.93  	14.2374
2462.81  	14.2805
2465.68  	14.3004
2468.56  	14.2501
2471.43  	14.2258
2474.3  	14.2517
2477.18  	14.299
2480.05  	14.2907
2482.93  	14.3098
2485.8  	14.3193
2488.67  	14.3485
2491.55  	14.3767
2494.42  	14.3199
2497.29  	14.3259
2500.17  	14.3679
2503.04  	14.2986
2505.92  	14.4042
2508.79  	14.3963
2511.66  	14.3839
2514.54  	14.3323
2517.41  	14.3923
2520.28  	14.425
2523.16  	14.4086
2526.03  	14.4669
2528.91  	14.3967
2531.78  	14.4188
2534.65  	14.382
2537.53  	14.3943
2540.4  	14.4546
2543.27  	14.4961
2546.15  	14.4478
2549.02  	14.3969
2551.9  	14.427
2554.77  	14.4975
2557.64  	14.4768
2560.52  	14.4726
2563.39  	14.5192
2566.26  	14.4901
2569.14  	14.5056
2572.01  	14.468
2574.89  	14.4543
2577.76  	14.5114
2580.63  	14.5022
2583.51  	14.4961
2586.38  	14.4727
2589.25  	14.4946
2592.13  	14.5359
2595  	14.4843
2597.88  	14.5222
2600.75  	14.496
2603.62  	14.5179
2606.5  	14.5097
2609.37  	14.546
2612.24  	14.5646
2615.12  	14.591
2617.99  	14.5307
2620.87  	14.5288
2623.74  	14.5753
2626.61  	14.5866
2629.49  	14.5963
2632.36  	14.6427
2635.23  	14.6319
2638.11  	14.6087
2640.98  	14.6496
2643.86  	14.6324
2646.73  	14.67
2649.6  	14.6747
2652.48  	14.6912
2655.35  	14.6899
2658.22  	14.6902
2661.1  	14.7156
2663.97  	14.7436
2666.85  	14.7431
2669.72  	14.7072
2672.59  	14.7666
2675.47  	14.7467
2678.34  	14.7577
2681.21  	14.76
2684.09  	14.7731
2686.96  	14.747
2689.84  	14.7587
2692.71  	14.752
2695.58  	14.7652
2698.46  	14.7726
2701.33  	14.7528
2704.2  	14.7876
2707.08  	14.7881
2709.95  	14.7804
2712.83  	14.8005
2715.7  	14.8085
2718.57  	14.8098
2721.45  	14.7652
2724.32  	14.7962
2727.19  	14.7976
2730.07  	14.8152
2732.94  	14.8009
2735.82  	14.8092
2738.69  	14.8129
2741.56  	14.7684
2744.44  	14.789
2747.31  	14.8567
2750.18  	14.8427
2753.06  	14.8305
2755.93  	14.8562
2758.81  	14.8265
2761.68  	14.8351
2764.55  	14.8461
2767.43  	14.8251
2770.3  	14.8007
2773.17  	14.8632
2776.05  	14.8723
2778.92  	14.8481
2781.8  	14.8537
2784.67  	14.817
2787.54  	14.8464
2790.42  	14.8656
2793.29  	14.8568
2796.16  	14.8671
2799.04  	14.8405
2801.91  	14.8339
2804.79  	14.8432
2807.66  	14.86
2810.53  	14.8447
2813.41  	14.8601
2816.28  	14.8297
2819.15  	14.8297
2822.03  	14.8248
2824.9  	14.8487
2827.78  	14.8344
2830.65  	14.7913
2833.52  	14.7986
2836.4  	14.8396
2839.27  	14.7839
2842.14  	14.8028
2845.02  	14.7567
2847.89  	14.7574
2850.77  	14.7531
2853.64  	14.7646
2856.51  	14.7753
2859.39  	14.7908
2862.26  	14.8506
2865.13  	14.8525
2868.01  	14.8209
2870.88  	14.8404
2873.76  	14.8318
2876.63  	14.8479
2879.5  	14.8658
2882.38  	14.8618
2885.25  	14.8529
2888.12  	14.8289
2891  	14.8319
2893.87  	14.826
2896.75  	14.8511
2899.62  	14.8057
2902.49  	14.7951
2905.37  	14.7882
2908.24  	14.7533
2911.11  	14.7011
2913.99  	14.6649
2916.86  	14.6557
2919.74  	14.7125
2922.61  	14.7531
2925.48  	14.7506
2928.36  	14.797
2931.23  	14.8111
2934.1  	14.8762
2936.98  	14.887
2939.85  	14.931
2942.73  	14.9035
2945.6  	14.9227
2948.47  	14.9692
2951.35  	14.9793
2954.22  	15.009
2957.09  	15.0339
2959.97  	15.0227
2962.84  	15.0491
2965.72  	15.0967
2968.59  	15.1024
2971.46  	15.1265
2974.34  	15.1155
2977.21  	15.1517
2980.08  	15.1882
2982.96  	15.191
2985.83  	15.223
2988.71  	15.2188
2991.58  	15.2161
2994.45  	15.2798
2997.33  	15.2556
3000.2  	15.2966
3003.07  	15.2693
3005.95  	15.2396
3008.82  	15.271
3011.7  	15.2817
3014.57  	15.2831
3017.44  	15.2722
3020.32  	15.3174
3023.19  	15.3091
3026.06  	15.3016
3028.94  	15.3062
3031.81  	15.3447
3034.69  	15.3454
3037.56  	15.2917
3040.43  	15.4075
3043.31  	15.3606
3046.18  	15.3648
3049.05  	15.3982
3051.93  	15.4318
3054.8  	15.4026
3057.68  	15.4355
3060.55  	15.3697
3063.42  	15.4379
3066.3  	15.4251
3069.17  	15.4005
3072.04  	15.3573
3074.92  	15.4059
3077.79  	15.3925
3080.67  	15.4387
3083.54  	15.4495
3086.41  	15.476
3089.29  	15.5061
3092.16  	15.5258
3095.04  	15.4803
3097.91  	15.5129
3100.78  	15.5266
3103.66  	15.5639
3106.53  	15.5139
3109.4  	15.6009
3112.28  	15.6136
3115.15  	15.6806
3118.03  	15.6427
3120.9  	15.6525
3123.77  	15.6055
3126.65  	15.5885
3129.52  	15.6419
3132.39  	15.6201
3135.27  	15.6548
3138.14  	15.6657
3141.02  	15.6753
3143.89  	15.6602
3146.76  	15.7465
3149.64  	15.7949
3152.51  	15.7984
3155.38  	15.6857
3158.26  	15.6939
3161.13  	15.8003
3164.01  	15.7994
3166.88  	15.8067
3169.75  	15.8356
3172.63  	15.891
3175.5  	15.8866
3178.37  	15.9532
3181.25  	15.9562
3184.12  	15.9668
3187  	16.0121
3189.87  	15.975
3192.74  	15.9685
3195.62  	16.0117
3198.49  	16.0579
3201.36  	16.0864
3204.24  	16.1337
3207.11  	16.13
3209.99  	16.1292
3212.86  	16.2326
3215.73  	16.2116
3218.61  	16.2374
3221.48  	16.3035
3224.35  	16.2965
3227.23  	16.3755
3230.1  	16.3609
3232.98  	16.5037
3235.85  	16.5083
3238.72  	16.5084
3241.6  	16.4998
3244.47  	16.604
3247.34  	16.5657
3250.22  	16.4814
3253.09  	16.59
3255.97  	16.6238
3258.84  	16.6859
3261.71  	16.6286
3264.59  	16.7012
3267.46  	16.6393
3270.33  	16.6236
3273.21  	16.5856
3276.08  	16.5401
3278.96  	16.5548
3281.83  	16.5694
3284.7  	16.4962
3287.58  	16.5385
3290.45  	16.524
3293.32  	16.4936
3296.2  	16.4431
3299.07  	16.4412
3301.95  	16.5093
3304.82  	16.3993
3307.69  	16.4293
3310.57  	16.4187
3313.44  	16.4092
3316.31  	16.3583
3319.19  	16.4596
3322.06  	16.3933
3324.94  	16.3855
3327.81  	16.4004
3330.68  	16.3642
3333.56  	16.3755
3336.43  	16.3442
3339.3  	16.3548
3342.18  	16.349
3345.05  	16.3649
3347.93  	16.3857
3350.8  	16.3923
3353.67  	16.4211
3356.55  	16.3688
3359.42  	16.3923
3362.29  	16.416
3365.17  	16.4429
3368.04  	16.4122
3370.92  	16.5282
3373.79  	16.5329
3376.66  	16.4621
3379.54  	16.5203
3382.41  	16.583
3385.28  	16.509
3388.16  	16.4428
3391.03  	16.45
3393.91  	16.5242
3396.78  	16.4849
3399.65  	16.5455
3402.53  	16.5157
3405.4  	16.4908
3408.27  	16.4744
3411.15  	16.5904
3414.02  	16.5973
3416.9  	16.5595
3419.77  	16.5358
3422.64  	16.5873
3425.52  	16.679
3428.39  	16.5994
3431.26  	16.6598
3434.14  	16.6493
3437.01  	16.7773
3439.89  	16.6489
3442.76  	16.6986
3445.63  	16.7594
3448.51  	16.7902
3451.38  	16.7668
3454.25  	16.7839
3457.13  	16.7939
3460  	16.9499
3462.88  	16.8013
3465.75  	16.8825
3468.62  	17.0016
3471.5  	16.9945
3474.37  	16.9424
3477.24  	17.0446
3480.12  	16.9987
3482.99  	17.0928
3485.87  	17.0406
3488.74  	17.0601
3491.61  	17.0999
3494.49  	17.0279
3497.36  	17.1471
3500.23  	17.0734
3503.11  	17.2169
3505.98  	17.1791
3508.86  	17.0597
3511.73  	17.1344
3514.6  	17.1413
3517.48  	17.193
3520.35  	17.1672
3523.22  	17.1025
3526.1  	17.2035
3528.97  	17.2816
3531.85  	17.2666
3534.72  	17.2541
3537.59  	17.3321
3540.47  	17.2862
3543.34  	17.1806
3546.21  	17.2526
3549.09  	17.3846
3551.96  	17.3448
3554.84  	17.3989
3557.71  	17.2113
3560.58  	17.3002
3563.46  	17.2586
3566.33  	17.1501
3569.2  	17.5897
3572.08  	17.4385
3574.95  	17.3188
3577.83  	17.2504
3580.7  	17.3024
3583.57  	17.2967
3586.45  	17.1389
3589.32  	17.5884
3592.19  	17.3992
3595.07  	17.3068
3597.94  	17.3288
3600.82  	17.4165
3603.69  	17.4161
3606.56  	17.3444
3609.44  	17.3675
3612.31  	17.3253
3615.18  	17.4555
3618.06  	17.2085
3620.93  	17.56
3623.81  	17.4752
3626.68  	17.2541
3629.55  	17.5118
3632.43  	17.5531
3635.3  	17.5847
3638.17  	17.4255
3641.05  	17.4446
3643.92  	17.5475
3646.8  	17.2006
3649.67  	17.5334
3652.54  	17.9066
3655.42  	17.4436
3658.29  	17.7863
3661.16  	17.6754
3664.04  	17.6731
3666.91  	17.508
3669.79  	17.4411
3672.66  	17.8583
3675.53  	17.4122
3678.41  	17.9026
3681.28  	17.7925
3684.15  	17.6448
3687.03  	17.442
3689.9  	17.7596
3692.78  	17.852
3695.65  	17.6597
3698.52  	17.6855
3701.4  	17.642
3704.27  	17.8787
3707.15  	17.6558
3710.02  	17.544
3712.89  	17.8475
3715.77  	17.9497
3718.64  	17.7221
3721.51  	17.6998
3724.39  	17.7672
3727.26  	17.8266
3730.14  	17.7458
3733.01  	17.6576
3735.88  	17.6307
3738.76  	18.0107
3741.63  	17.7438
3744.5  	17.5173
3747.38  	17.9626
3750.25  	17.7312
3753.13  	18.1898
3756  	17.8838
3758.87  	17.837
3761.75  	18.1146
3764.62  	17.7484
3767.49  	17.9863
3770.37  	17.96
3773.24  	17.9952
3776.12  	17.9547
3778.99  	17.8162
3781.86  	18.0948
3784.74  	17.9207
3787.61  	18.0283
3790.48  	17.9766
3793.36  	18.0158
3796.23  	17.8205
3799.11  	17.9725
3801.98  	18.062
3804.85  	18.0871
3807.73  	18.13
3810.6  	18.0315
3813.47  	17.9487
3816.35  	17.9783
3819.22  	17.9105
3822.1  	18.2467
3824.97  	18.0336
3827.84  	18.2093
3830.72  	17.9753
3833.59  	18.1117
3836.46  	17.8872
3839.34  	18.1507
3842.21  	18.2282
3845.09  	18.2648
3847.96  	18.0973
3850.83  	17.8138
3853.71  	17.9627
3856.58  	18.4784
3859.45  	18.213
3862.33  	18.0005
3865.2  	18.09
3868.08  	18.0614
3870.95  	18.3948
3873.82  	18.0446
3876.7  	18.3567
3879.57  	17.9784
3882.44  	18.3584
3885.32  	17.9397
3888.19  	18.3745
3891.07  	18.044
3893.94  	18.3782
3896.81  	18.1465
3899.69  	18.135
3902.56  	18.2024
3905.43  	18.4579
3908.31  	18.3896
3911.18  	18.2537
3914.06  	18.244
3916.93  	18.2427
3919.8  	18.338
3922.68  	18.3262
3925.55  	18.3778
3928.42  	18.264
3931.3  	18.2541
3934.17  	18.4091
3937.05  	18.3606
3939.92  	18.3871
3942.79  	18.3319
3945.67  	18.3577
3948.54  	18.293
3951.41  	18.4277
3954.29  	18.418
3957.16  	18.4161
3960.04  	18.383
3962.91  	18.402
3965.78  	18.3384
3968.66  	18.3721
3971.53  	18.402
3974.4  	18.3842
3977.28  	18.4599
3980.15  	18.4182
3983.03  	18.4575
3985.9  	18.4589
3988.77  	18.425
3991.65  	18.4578
3994.52  	18.412
3997.39  	18.4195
4000.27  	18.4389