File: FTIR/MoS2_2H_1.txt
##TITLE=No Description
##DATA TYPE=INFRARED SPECTRUM
##XUNITS=1/CM
##YUNITS=%T
399.452  	77.367
402.326  	76.7145
405.2  	75.2375
408.073  	73.7786
410.947  	73.5706
413.821  	71.4657
416.695  	69.7046
419.568  	67.0392
422.442  	66.7632
425.316  	67.8601
428.19  	68.389
431.063  	69.1777
433.937  	70.7087
436.811  	72.5372
439.685  	73.548
442.558  	73.5345
445.432  	73.5753
448.306  	73.7009
451.18  	73.1525
454.053  	74.892
456.927  	74.3977
459.801  	74.7188
462.675  	74.8242
465.548  	74.143
468.422  	72.3684
471.296  	74.0561
474.17  	74.0369
477.043  	72.3697
479.917  	70.6725
482.791  	68.7099
485.665  	67.5774
488.538  	67.9562
491.412  	69.4227
494.286  	71.1888
497.16  	72.5569
500.034  	73.9953
502.907  	74.4579
505.781  	74.8484
508.655  	74.9474
511.529  	75.1724
514.402  	75.4354
517.276  	75.1928
520.15  	75.3523
523.024  	75.5417
525.897  	75.5751
528.771  	75.5643
531.645  	75.502
534.519  	75.4075
537.392  	75.5233
540.266  	75.3341
543.14  	75.2267
546.014  	75.247
548.887  	75.1632
551.761  	75.0451
554.635  	74.7438
557.509  	74.3075
560.382  	74.1064
563.256  	73.9733
566.13  	73.6059
569.004  	73.4265
571.877  	73.2748
574.751  	73.0433
577.625  	72.7884
580.499  	72.5748
583.372  	72.3871
586.246  	72.3273
589.12  	72.1063
591.994  	72.0835
594.867  	72.0208
597.741  	71.9006
600.615  	71.8182
603.489  	71.7475
606.362  	71.625
609.236  	71.5052
612.11  	71.454
614.984  	71.3945
617.858  	71.3251
620.731  	71.249
623.605  	71.2794
626.479  	71.2172
629.353  	71.2687
632.226  	71.2617
635.1  	71.3698
637.974  	71.3952
640.848  	71.494
643.721  	71.7217
646.595  	71.88
649.469  	72.1223
652.343  	72.3503
655.216  	72.5105
658.09  	72.7384
660.964  	72.9803
663.838  	73.2562
666.711  	73.4133
669.585  	73.8893
672.459  	74.1326
675.333  	74.5467
678.206  	74.8866
681.08  	75.2636
683.954  	75.597
686.828  	75.9459
689.701  	76.2719
692.575  	76.609
695.449  	76.98
698.323  	77.3529
701.196  	77.6811
704.07  	78.051
706.944  	78.4442
709.818  	78.7947
712.691  	79.1673
715.565  	79.587
718.439  	79.8902
721.313  	80.2062
724.186  	80.6125
727.06  	80.9835
729.934  	81.3453
732.808  	81.6163
735.681  	82.068
738.555  	82.4139
741.429  	82.6907
744.303  	83.0559
747.177  	83.4225
750.05  	83.7452
752.924  	84.0764
755.798  	84.4883
758.672  	84.7949
761.545  	85.1275
764.419  	85.4285
767.293  	85.7872
770.167  	86.1142
773.04  	86.41
775.914  	86.692
778.788  	86.9465
781.662  	87.2184
784.535  	87.5185
787.409  	87.7758
790.283  	87.9377
793.157  	88.111
796.03  	88.0746
798.904  	88.035
801.778  	87.5445
804.652  	86.486
807.525  	83.9086
810.399  	77.8098
813.273  	65.6261
816.147  	56.3275
819.02  	63.6762
821.894  	78.4711
824.768  	85.7375
827.642  	88.3441
830.515  	89.585
833.389  	90.2773
836.263  	90.7079
839.137  	91.133
842.01  	91.4218
844.884  	91.5728
847.758  	91.7711
850.632  	91.8714
853.505  	92.036
856.379  	92.1217
859.253  	92.2456
862.127  	92.2949
865.001  	92.3596
867.874  	92.3348
870.748  	92.3564
873.622  	92.4181
876.496  	92.4185
879.369  	92.3817
882.243  	92.3734
885.117  	92.2536
887.991  	92.1078
890.864  	91.9826
893.738  	91.8241
896.612  	91.6271
899.486  	91.3464
902.359  	91.0078
905.233  	90.6403
908.107  	90.2005
910.981  	89.5151
913.854  	88.7087
916.728  	87.5245
919.602  	86.303
922.476  	85.1459
925.349  	83.8288
928.223  	81.7259
931.097  	78.6221
933.971  	74.6419
936.844  	70.0759
939.718  	63.7515
942.592  	53.9811
945.466  	42.3762
948.339  	32.9087
951.213  	30.9177
954.087  	40.2156
956.961  	56.059
959.834  	71.6954
962.708  	81.6398
965.582  	86.4139
968.456  	88.7814
971.329  	90.0395
974.203  	90.8559
977.077  	91.3501
979.951  	91.7665
982.824  	92.131
985.698  	92.5249
988.572  	92.7853
991.446  	92.9841
994.32  	93.1268
997.193  	93.235
1000.07  	93.2588
1002.94  	93.2865
1005.81  	93.2977
1008.69  	93.2733
1011.56  	93.1943
1014.44  	93.1298
1017.31  	93.0253
1020.18  	92.9384
1023.06  	92.8293
1025.93  	92.7391
1028.8  	92.6254
1031.68  	92.4937
1034.55  	92.313
1037.43  	92.1486
1040.3  	91.9351
1043.17  	91.7057
1046.05  	91.467
1048.92  	91.1822
1051.79  	90.8699
1054.67  	90.5354
1057.54  	90.0027
1060.42  	89.512
1063.29  	88.9013
1066.16  	88.2052
1069.04  	87.3293
1071.91  	86.4578
1074.78  	85.3234
1077.66  	83.9641
1080.53  	82.3515
1083.41  	80.3079
1086.28  	77.7565
1089.15  	74.6935
1092.03  	71.2995
1094.9  	67.6483
1097.77  	63.9461
1100.65  	60.6314
1103.52  	58.3625
1106.4  	57.474
1109.27  	57.7055
1112.14  	58.7438
1115.02  	60.0627
1117.89  	60.6745
1120.76  	58.987
1123.64  	54.9424
1126.51  	51.4005
1129.39  	51.8444
1132.26  	56.3227
1135.13  	62.8572
1138.01  	68.337
1140.88  	71.3236
1143.75  	72.1725
1146.63  	71.4689
1149.5  	69.4997
1152.38  	66.4634
1155.25  	62.8204
1158.12  	59.96
1161  	59.6359
1163.87  	63.1773
1166.74  	70.1748
1169.62  	78.0859
1172.49  	83.9796
1175.37  	87.3946
1178.24  	89.1904
1181.11  	90.08
1183.99  	90.433
1186.86  	90.5658
1189.73  	90.8256
1192.61  	91.1442
1195.48  	91.4313
1198.36  	91.6289
1201.23  	91.6807
1204.1  	91.7202
1206.98  	91.6725
1209.85  	91.6273
1212.72  	91.5506
1215.6  	91.4727
1218.47  	91.3674
1221.35  	91.2886
1224.22  	91.1753
1227.09  	91.0464
1229.97  	90.9199
1232.84  	90.8513
1235.72  	90.7649
1238.59  	90.5931
1241.46  	90.421
1244.34  	90.2045
1247.21  	89.9383
1250.08  	89.6275
1252.96  	89.3332
1255.83  	89.0679
1258.71  	88.7263
1261.58  	88.3726
1264.45  	87.9297
1267.33  	87.3838
1270.2  	86.7005
1273.07  	85.9262
1275.95  	85.0108
1278.82  	83.8355
1281.7  	82.5376
1284.57  	81.0929
1287.44  	79.5599
1290.32  	78.0254
1293.19  	76.6214
1296.06  	75.3501
1298.94  	74.2834
1301.81  	73.514
1304.69  	73.2051
1307.56  	73.254
1310.43  	73.5234
1313.31  	74.0677
1316.18  	75.0651
1319.05  	76.4322
1321.93  	78.104
1324.8  	79.7945
1327.68  	81.1767
1330.55  	81.7613
1333.42  	81.3757
1336.3  	80.0207
1339.17  	78.2629
1342.04  	78.3756
1344.92  	80.6982
1347.79  	82.586
1350.67  	83.7334
1353.54  	83.7799
1356.41  	82.3166
1359.29  	79.7524
1362.16  	75.3044
1365.03  	70.5486
1367.91  	68.8569
1370.78  	69.9864
1373.66  	69.5231
1376.53  	65.7579
1379.4  	64.3262
1382.28  	69.4115
1385.15  	75.6891
1388.02  	79.9917
1390.9  	82.2895
1393.77  	82.308
1396.65  	82.0199
1399.52  	81.5603
1402.39  	81.0694
1405.27  	80.4806
1408.14  	80.1513
1411.01  	80.439
1413.89  	81.0085
1416.76  	81.5785
1419.64  	82.2518
1422.51  	82.9078
1425.38  	83.3724
1428.26  	83.8088
1431.13  	84.3348
1434  	84.8213
1436.88  	85.2782
1439.75  	85.7273
1442.63  	86.0382
1445.5  	85.9577
1448.37  	85.1424
1451.25  	83.8959
1454.12  	82.5366
1456.99  	81.7153
1459.87  	80.6091
1462.74  	79.2024
1465.62  	77.9308
1468.49  	78.0565
1471.36  	80.3142
1474.24  	83.7287
1477.11  	85.5649
1479.98  	86.8977
1482.86  	88.1163
1485.73  	88.9924
1488.61  	89.5633
1491.48  	90.0373
1494.35  	90.535
1497.23  	90.9775
1500.1  	91.3536
1502.97  	91.7002
1505.85  	91.835
1508.72  	91.9193
1511.6  	92.0651
1514.47  	92.2403
1517.34  	92.3244
1520.22  	92.4481
1523.09  	92.538
1525.96  	92.6035
1528.84  	92.6643
1531.71  	92.7622
1534.59  	92.8585
1537.46  	92.9505
1540.33  	92.934
1543.21  	92.9364
1546.08  	92.9976
1548.95  	93.0496
1551.83  	93.085
1554.7  	93.1341
1557.58  	93.1778
1560.45  	93.1377
1563.32  	93.1794
1566.2  	93.221
1569.07  	93.2784
1571.94  	93.3173
1574.82  	93.3143
1577.69  	93.2522
1580.57  	93.2852
1583.44  	93.2467
1586.31  	93.256
1589.19  	93.2955
1592.06  	93.2353
1594.93  	93.1602
1597.81  	93.2244
1600.68  	93.2206
1603.56  	93.1745
1606.43  	93.0944
1609.3  	93.1541
1612.18  	93.1337
1615.05  	93.0769
1617.92  	93.0085
1620.8  	92.9902
1623.67  	92.9189
1626.55  	92.925
1629.42  	92.9187
1632.29  	92.8367
1635.17  	92.7563
1638.04  	92.7227
1640.91  	92.72
1643.79  	92.7184
1646.66  	92.6646
1649.54  	92.6822
1652.41  	92.6113
1655.28  	92.5883
1658.16  	92.5999
1661.03  	92.6456
1663.9  	92.6854
1666.78  	92.6879
1669.65  	92.6583
1672.53  	92.6828
1675.4  	92.7757
1678.27  	92.8494
1681.15  	92.8794
1684.02  	92.8834
1686.89  	92.8857
1689.77  	92.8084
1692.64  	92.8894
1695.52  	92.919
1698.39  	92.7843
1701.26  	92.7236
1704.14  	92.6545
1707.01  	92.5251
1709.88  	92.487
1712.76  	92.5908
1715.63  	92.5987
1718.51  	92.5836
1721.38  	92.686
1724.25  	92.8358
1727.13  	92.9347
1730  	92.8474
1732.87  	92.8015
1735.75  	92.8158
1738.62  	92.7413
1741.5  	92.6824
1744.37  	92.6577
1747.24  	92.6475
1750.12  	92.5657
1752.99  	92.4747
1755.86  	92.4305
1758.74  	92.3907
1761.61  	92.2932
1764.49  	92.1774
1767.36  	92.1688
1770.23  	92.2136
1773.11  	92.3338
1775.98  	92.4546
1778.85  	92.5972
1781.73  	92.6448
1784.6  	92.7051
1787.48  	92.7601
1790.35  	92.7309
1793.22  	92.7032
1796.1  	92.7153
1798.97  	92.7456
1801.84  	92.7922
1804.72  	92.7595
1807.59  	92.7807
1810.47  	92.7993
1813.34  	92.7599
1816.21  	92.7581
1819.09  	92.7705
1821.96  	92.802
1824.83  	92.7593
1827.71  	92.761
1830.58  	92.7556
1833.46  	92.7979
1836.33  	92.742
1839.2  	92.7056
1842.08  	92.6756
1844.95  	92.671
1847.83  	92.6901
1850.7  	92.69
1853.57  	92.7245
1856.45  	92.6824
1859.32  	92.7086
1862.19  	92.6968
1865.07  	92.6649
1867.94  	92.6409
1870.82  	92.5869
1873.69  	92.6836
1876.56  	92.6874
1879.44  	92.6502
1882.31  	92.5741
1885.18  	92.6296
1888.06  	92.5948
1890.93  	92.5299
1893.81  	92.4924
1896.68  	92.5267
1899.55  	92.5493
1902.43  	92.447
1905.3  	92.3566
1908.17  	92.4219
1911.05  	92.4849
1913.92  	92.6227
1916.8  	92.613
1919.67  	92.4511
1922.54  	92.4985
1925.42  	92.4572
1928.29  	92.4405
1931.16  	92.4216
1934.04  	92.3879
1936.91  	92.4013
1939.79  	92.323
1942.66  	92.5319
1945.53  	92.454
1948.41  	92.4797
1951.28  	92.4753
1954.15  	92.4255
1957.03  	92.4415
1959.9  	92.6653
1962.78  	92.6212
1965.65  	92.378
1968.52  	92.4411
1971.4  	92.2846
1974.27  	92.4587
1977.14  	92.33
1980.02  	92.5953
1982.89  	92.3976
1985.77  	92.5826
1988.64  	92.481
1991.51  	92.3932
1994.39  	92.3048
1997.26  	92.4128
2000.13  	92.9564
2003.01  	92.6494
2005.88  	92.6083
2008.76  	92.5897
2011.63  	92.754
2014.5  	92.5914
2017.38  	92.2013
2020.25  	92.4732
2023.12  	92.7496
2026  	92.192
2028.87  	92.6847
2031.75  	92.818
2034.62  	92.7925
2037.49  	92.9636
2040.37  	92.4878
2043.24  	92.8507
2046.11  	92.7248
2048.99  	92.5199
2051.86  	92.2923
2054.74  	92.3583
2057.61  	92.4077
2060.48  	92.3491
2063.36  	92.2674
2066.23  	92.3233
2069.1  	92.4213
2071.98  	92.3091
2074.85  	92.1122
2077.73  	92.212
2080.6  	92.2036
2083.47  	92.2255
2086.35  	92.1818
2089.22  	92.0677
2092.09  	92.1421
2094.97  	92.1053
2097.84  	92.1983
2100.72  	92.0376
2103.59  	92.1577
2106.46  	92.1095
2109.34  	92.2229
2112.21  	92.1969
2115.08  	91.91
2117.96  	92.0682
2120.83  	92.0463
2123.71  	92.0004
2126.58  	92.1734
2129.45  	92.1414
2132.33  	92.2346
2135.2  	92.2041
2138.07  	92.3073
2140.95  	92.2581
2143.82  	92.2529
2146.7  	92.2543
2149.57  	92.0114
2152.44  	92.3582
2155.32  	92.2835
2158.19  	92.5208
2161.06  	92.6151
2163.94  	92.3072
2166.81  	92.1747
2169.69  	92.4424
2172.56  	92.4886
2175.43  	92.4854
2178.31  	91.974
2181.18  	91.9481
2184.05  	92.4179
2186.93  	92.4949
2189.8  	92.2877
2192.68  	92.181
2195.55  	92.3054
2198.42  	92.2085
2201.3  	92.047
2204.17  	92.5328
2207.04  	92.5999
2209.92  	92.3781
2212.79  	92.1686
2215.67  	92.4271
2218.54  	92.2887
2221.41  	92.2184
2224.29  	92.3521
2227.16  	92.2702
2230.03  	92.2694
2232.91  	92.1511
2235.78  	92.2006
2238.66  	91.9374
2241.53  	92.1533
2244.4  	92.0578
2247.28  	92.059
2250.15  	92.1539
2253.02  	91.9901
2255.9  	92.0011
2258.77  	92.0735
2261.65  	92.0741
2264.52  	91.938
2267.39  	92.0197
2270.27  	92.0499
2273.14  	91.8472
2276.01  	91.8841
2278.89  	91.8141
2281.76  	91.711
2284.64  	91.6879
2287.51  	91.6663
2290.38  	91.5198
2293.26  	91.711
2296.13  	91.664
2299  	91.5668
2301.88  	91.5141
2304.75  	91.4258
2307.63  	91.523
2310.5  	91.469
2313.37  	91.3918
2316.25  	91.502
2319.12  	91.4522
2321.99  	91.4235
2324.87  	91.4051
2327.74  	91.4489
2330.62  	91.362
2333.49  	91.3718
2336.36  	91.4326
2339.24  	91.4678
2342.11  	91.4476
2344.98  	91.4705
2347.86  	91.5684
2350.73  	91.5376
2353.61  	91.5573
2356.48  	91.6197
2359.35  	91.5108
2362.23  	91.4577
2365.1  	91.3348
2367.97  	91.3627
2370.85  	91.2447
2373.72  	91.1615
2376.6  	91.058
2379.47  	91.0513
2382.34  	91.1183
2385.22  	91.1472
2388.09  	91.1191
2390.96  	91.1009
2393.84  	91.1311
2396.71  	91.0789
2399.59  	91.0159
2402.46  	90.9744
2405.33  	90.9863
2408.21  	90.8265
2411.08  	90.8664
2413.95  	90.9363
2416.83  	90.9035
2419.7  	90.8786
2422.58  	90.9987
2425.45  	91.021
2428.32  	91.0369
2431.2  	91.0132
2434.07  	91.0991
2436.94  	91.136
2439.82  	91.1521
2442.69  	91.0645
2445.57  	91.1105
2448.44  	91.1536
2451.31  	91.0403
2454.19  	91.0478
2457.06  	90.8995
2459.93  	91.0096
2462.81  	90.9405
2465.68  	90.8204
2468.56  	90.9115
2471.43  	90.8618
2474.3  	90.8086
2477.18  	90.8247
2480.05  	90.901
2482.93  	90.7747
2485.8  	90.6927
2488.67  	90.7429
2491.55  	90.7701
2494.42  	90.6194
2497.29  	90.6526
2500.17  	90.6822
2503.04  	90.5599
2505.92  	90.4468
2508.79  	90.4683
2511.66  	90.4463
2514.54  	90.3796
2517.41  	90.3215
2520.28  	90.39
2523.16  	90.3697
2526.03  	90.382
2528.91  	90.3487
2531.78  	90.3255
2534.65  	90.3816
2537.53  	90.4687
2540.4  	90.4942
2543.27  	90.4776
2546.15  	90.4548
2549.02  	90.4702
2551.9  	90.4319
2554.77  	90.4261
2557.64  	90.3468
2560.52  	90.3306
2563.39  	90.2463
2566.26  	90.2327
2569.14  	90.114
2572.01  	90.0224
2574.89  	90.0464
2577.76  	90.0101
2580.63  	89.9591
2583.51  	89.9679
2586.38  	89.9659
2589.25  	89.9068
2592.13  	89.9976
2595  	89.9954
2597.88  	89.923
2600.75  	89.9473
2603.62  	89.9842
2606.5  	89.9827
2609.37  	89.9527
2612.24  	89.9464
2615.12  	89.9383
2617.99  	89.9569
2620.87  	89.9576
2623.74  	90.0036
2626.61  	89.959
2629.49  	89.9271
2632.36  	89.9124
2635.23  	89.8266
2638.11  	89.7491
2640.98  	89.5948
2643.86  	89.5255
2646.73  	89.3428
2649.6  	89.1741
2652.48  	89.0348
2655.35  	88.969
2658.22  	88.8893
2661.1  	88.88
2663.97  	89.004
2666.85  	89.1289
2669.72  	89.3078
2672.59  	89.43
2675.47  	89.4762
2678.34  	89.5013
2681.21  	89.4669
2684.09  	89.4138
2686.96  	89.3943
2689.84  	89.2525
2692.71  	89.1759
2695.58  	89.0292
2698.46  	88.9667
2701.33  	88.8733
2704.2  	88.8378
2707.08  	88.8482
2709.95  	88.8212
2712.83  	88.7678
2715.7  	88.6655
2718.57  	88.6264
2721.45  	88.6228
2724.32  	88.6046
2727.19  	88.6729
2730.07  	88.7053
2732.94  	88.7543
2735.82  	88.8037
2738.69  	88.7911
2741.56  	88.823
2744.44  	88.7827
2747.31  	88.7896
2750.18  	88.8237
2753.06  	88.7069
2755.93  	88.6404
2758.81  	88.6136
2761.68  	88.5707
2764.55  	88.5098
2767.43  	88.4321
2770.3  	88.3692
2773.17  	88.3358
2776.05  	88.2821
2778.92  	88.171
2781.8  	88.0721
2784.67  	87.9995
2787.54  	87.9292
2790.42  	87.915
2793.29  	87.8577
2796.16  	87.8017
2799.04  	87.6854
2801.91  	87.5353
2804.79  	87.4333
2807.66  	87.313
2810.53  	87.1429
2813.41  	87.0555
2816.28  	86.9751
2819.15  	86.862
2822.03  	86.768
2824.9  	86.5909
2827.78  	86.4912
2830.65  	86.3092
2833.52  	86.1061
2836.4  	85.9188
2839.27  	85.6972
2842.14  	85.3662
2845.02  	85.1136
2847.89  	84.7114
2850.77  	84.2473
2853.64  	83.7862
2856.51  	83.2208
2859.39  	82.6358
2862.26  	82.0886
2865.13  	81.5569
2868.01  	80.9985
2870.88  	80.4111
2873.76  	79.8468
2876.63  	79.2709
2879.5  	78.781
2882.38  	78.563
2885.25  	78.7125
2888.12  	79.0331
2891  	79.365
2893.87  	79.7909
2896.75  	80.087
2899.62  	80.3149
2902.49  	80.5386
2905.37  	80.6176
2908.24  	80.622
2911.11  	80.4561
2913.99  	80.2707
2916.86  	80.0435
2919.74  	79.8149
2922.61  	79.6779
2925.48  	79.4514
2928.36  	79.0694
2931.23  	78.7685
2934.1  	78.8133
2936.98  	79.0882
2939.85  	79.6429
2942.73  	80.3839
2945.6  	81.02
2948.47  	81.0277
2951.35  	80.3203
2954.22  	78.6747
2957.09  	75.9727
2959.97  	71.9272
2962.84  	66.4239
2965.72  	60.5017
2968.59  	56.2635
2971.46  	56.4762
2974.34  	60.8556
2977.21  	66.7424
2980.08  	72.6668
2982.96  	77.7964
2985.83  	81.6784
2988.71  	84.2442
2991.58  	85.9142
2994.45  	86.9515
2997.33  	87.7094
3000.2  	88.1034
3003.07  	88.4802
3005.95  	88.6556
3008.82  	88.9088
3011.7  	88.996
3014.57  	89.0706
3017.44  	89.0958
3020.32  	89.1102
3023.19  	89.1005
3026.06  	89.1804
3028.94  	89.2014
3031.81  	89.131
3034.69  	89.1865
3037.56  	89.137
3040.43  	89.0766
3043.31  	89.0562
3046.18  	89.0015
3049.05  	88.9494
3051.93  	88.9236
3054.8  	88.8099
3057.68  	88.7294
3060.55  	88.7848
3063.42  	88.6454
3066.3  	88.5642
3069.17  	88.5023
3072.04  	88.4594
3074.92  	88.4393
3077.79  	88.2401
3080.67  	88.1462
3083.54  	88.1138
3086.41  	88.0643
3089.29  	87.9472
3092.16  	87.8357
3095.04  	87.749
3097.91  	87.5825
3100.78  	87.5078
3103.66  	87.4309
3106.53  	87.2356
3109.4  	87.1226
3112.28  	87.0142
3115.15  	86.9971
3118.03  	86.7304
3120.9  	86.5872
3123.77  	86.4813
3126.65  	86.3375
3129.52  	86.2239
3132.39  	86.0617
3135.27  	85.8974
3138.14  	85.6651
3141.02  	85.5747
3143.89  	85.3019
3146.76  	85.1581
3149.64  	84.941
3152.51  	84.7006
3155.38  	84.5715
3158.26  	84.2943
3161.13  	84.1733
3164.01  	83.887
3166.88  	83.6103
3169.75  	83.4264
3172.63  	83.0725
3175.5  	82.7919
3178.37  	82.5354
3181.25  	82.2843
3184.12  	82.0704
3187  	81.6992
3189.87  	81.3619
3192.74  	81.0113
3195.62  	80.814
3198.49  	80.4042
3201.36  	80.0704
3204.24  	79.8563
3207.11  	79.5965
3209.99  	79.3452
3212.86  	78.9798
3215.73  	78.4897
3218.61  	78.1889
3221.48  	77.8681
3224.35  	77.4889
3227.23  	77.2154
3230.1  	76.7923
3232.98  	76.4843
3235.85  	76.1159
3238.72  	75.8235
3241.6  	75.6581
3244.47  	75.2396
3247.34  	74.8529
3250.22  	74.6881
3253.09  	74.3336
3255.97  	74.116
3258.84  	73.9842
3261.71  	73.7061
3264.59  	73.4263
3267.46  	73.0632
3270.33  	72.9224
3273.21  	72.7184
3276.08  	72.4074
3278.96  	72.344
3281.83  	72.1213
3284.7  	71.9864
3287.58  	71.7351
3290.45  	71.6411
3293.32  	71.4836
3296.2  	71.3113
3299.07  	71.3121
3301.95  	71.1055
3304.82  	71.0073
3307.69  	70.9912
3310.57  	70.8804
3313.44  	70.8509
3316.31  	70.7427
3319.19  	70.6996
3322.06  	70.7107
3324.94  	70.6624
3327.81  	70.6839
3330.68  	70.6723
3333.56  	70.7494
3336.43  	70.7426
3339.3  	70.8076
3342.18  	70.9953
3345.05  	70.9566
3347.93  	71.1449
3350.8  	71.3962
3353.67  	71.5083
3356.55  	71.6948
3359.42  	71.866
3362.29  	72.0782
3365.17  	72.4232
3368.04  	72.5709
3370.92  	72.9046
3373.79  	73.1665
3376.66  	73.3973
3379.54  	73.8193
3382.41  	74.1786
3385.28  	74.5311
3388.16  	74.8032
3391.03  	75.1891
3393.91  	75.5368
3396.78  	75.866
3399.65  	76.209
3402.53  	76.4679
3405.4  	76.8431
3408.27  	77.3939
3411.15  	77.6616
3414.02  	78.0302
3416.9  	78.351
3419.77  	78.7245
3422.64  	79.04
3425.52  	79.479
3428.39  	79.8655
3431.26  	80.1191
3434.14  	80.4642
3437.01  	80.775
3439.89  	81.1186
3442.76  	81.3912
3445.63  	81.636
3448.51  	81.9879
3451.38  	82.3438
3454.25  	82.6312
3457.13  	82.9743
3460  	83.2433
3462.88  	83.4858
3465.75  	83.8873
3468.62  	84.1893
3471.5  	84.4046
3474.37  	84.783
3477.24  	85.0979
3480.12  	85.4196
3482.99  	85.6731
3485.87  	85.9358
3488.74  	86.1713
3491.61  	86.3736
3494.49  	86.5729
3497.36  	86.8923
3500.23  	87.1307
3503.11  	87.3706
3505.98  	87.5653
3508.86  	87.7396
3511.73  	88.0343
3514.6  	88.1542
3517.48  	88.3079
3520.35  	88.5315
3523.22  	88.7941
3526.1  	88.8479
3528.97  	88.8859
3531.85  	89.2505
3534.72  	89.3994
3537.59  	89.433
3540.47  	89.5954
3543.34  	89.7263
3546.21  	89.7649
3549.09  	89.9316
3551.96  	89.9949
3554.84  	90.1636
3557.71  	90.1284
3560.58  	90.2207
3563.46  	90.4972
3566.33  	90.5916
3569.2  	90.513
3572.08  	90.8489
3574.95  	90.8597
3577.83  	90.8802
3580.7  	90.9571
3583.57  	91.0836
3586.45  	91.1793
3589.32  	90.9803
3592.19  	91.1118
3595.07  	91.3584
3597.94  	91.2503
3600.82  	91.1683
3603.69  	91.4317
3606.56  	91.552
3609.44  	91.5055
3612.31  	91.5024
3615.18  	91.4819
3618.06  	91.3434
3620.93  	91.3627
3623.81  	91.5527
3626.68  	91.6384
3629.55  	91.5864
3632.43  	91.5481
3635.3  	91.6398
3638.17  	91.6873
3641.05  	91.7065
3643.92  	91.7049
3646.8  	91.8353
3649.67  	91.7195
3652.54  	91.8087
3655.42  	91.9827
3658.29  	91.9559
3661.16  	91.7805
3664.04  	91.8286
3666.91  	91.937
3669.79  	91.8669
3672.66  	91.7517
3675.53  	91.8506
3678.41  	91.9066
3681.28  	91.8122
3684.15  	91.6866
3687.03  	91.9745
3689.9  	92.0088
3692.78  	91.8228
3695.65  	91.6855
3698.52  	91.8463
3701.4  	91.9422
3704.27  	91.9266
3707.15  	91.8868
3710.02  	91.9103
3712.89  	91.9103
3715.77  	91.7352
3718.64  	91.8816
3721.51  	91.8995
3724.39  	91.8036
3727.26  	91.97
3730.14  	92.0072
3733.01  	91.8713
3735.88  	92.016
3738.76  	91.8794
3741.63  	91.9044
3744.5  	92.2096
3747.38  	91.7766
3750.25  	91.9323
3753.13  	92.0417
3756  	91.9776
3758.87  	91.8287
3761.75  	91.9936
3764.62  	92.0252
3767.49  	91.8047
3770.37  	91.7879
3773.24  	91.8765
3776.12  	91.948
3778.99  	91.9209
3781.86  	91.8409
3784.74  	91.8515
3787.61  	91.7887
3790.48  	91.6391
3793.36  	91.8193
3796.23  	91.8302
3799.11  	91.7784
3801.98  	92.0222
3804.85  	91.5806
3807.73  	91.9682
3810.6  	91.7176
3813.47  	91.6693
3816.35  	91.785
3819.22  	91.8565
3822.1  	91.4314
3824.97  	91.5419
3827.84  	91.6072
3830.72  	91.8017
3833.59  	91.9303
3836.46  	91.7749
3839.34  	91.7613
3842.21  	91.5539
3845.09  	91.7136
3847.96  	91.8548
3850.83  	91.8503
3853.71  	91.7685
3856.58  	91.6717
3859.45  	91.7084
3862.33  	91.6952
3865.2  	91.7949
3868.08  	91.8017
3870.95  	91.8657
3873.82  	91.6999
3876.7  	91.6575
3879.57  	91.9016
3882.44  	92.0824
3885.32  	91.9138
3888.19  	91.7397
3891.07  	91.7662
3893.94  	91.8357
3896.81  	91.845
3899.69  	91.8293
3902.56  	91.7188
3905.43  	91.7255
3908.31  	91.7683
3911.18  	91.884
3914.06  	91.8482
3916.93  	91.7881
3919.8  	91.7649
3922.68  	91.8201
3925.55  	91.7377
3928.42  	91.8264
3931.3  	91.8373
3934.17  	91.8539
3937.05  	91.7417
3939.92  	91.8432
3942.79  	91.7857
3945.67  	91.7828
3948.54  	91.7591
3951.41  	91.7435
3954.29  	91.7748
3957.16  	91.7875
3960.04  	91.8215
3962.91  	91.7778
3965.78  	91.6705
3968.66  	91.7492
3971.53  	91.7575
3974.4  	91.7281
3977.28  	91.7604
3980.15  	91.7379
3983.03  	91.713
3985.9  	91.7495
3988.77  	91.6802
3991.65  	91.677
3994.52  	91.6893
3997.39  	91.7072
4000.27  	91.7513