File: FTIR/MoS2_4H_1.txt
##TITLE=No Description
##DATA TYPE=INFRARED SPECTRUM
##XUNITS=1/CM
##YUNITS=%T
399.452  	74.7092
402.326  	74.2192
405.2  	72.6822
408.073  	71.6647
410.947  	72.0606
413.821  	70.3546
416.695  	67.8598
419.568  	66.5292
422.442  	66.0213
425.316  	64.8736
428.19  	66.34
431.063  	67.3127
433.937  	69.6035
436.811  	70.155
439.685  	71.301
442.558  	72.4031
445.432  	71.5352
448.306  	71.9023
451.18  	72.978
454.053  	73.2726
456.927  	72.8934
459.801  	72.7161
462.675  	72.767
465.548  	72.2089
468.422  	71.1615
471.296  	72.869
474.17  	72.4472
477.043  	71.3148
479.917  	70.1727
482.791  	67.517
485.665  	66.8487
488.538  	66.7718
491.412  	68.3002
494.286  	70.4892
497.16  	71.2693
500.034  	72.425
502.907  	73.4709
505.781  	73.7267
508.655  	74.1111
511.529  	74.2911
514.402  	74.7368
517.276  	74.3295
520.15  	74.7606
523.024  	74.6524
525.897  	74.7116
528.771  	74.7686
531.645  	74.76
534.519  	74.5675
537.392  	74.6219
540.266  	75.1338
543.14  	74.7925
546.014  	74.9681
548.887  	74.5593
551.761  	74.5568
554.635  	74.5831
557.509  	74.3436
560.382  	74.1107
563.256  	73.6816
566.13  	73.6823
569.004  	73.4974
571.877  	73.186
574.751  	72.7876
577.625  	72.702
580.499  	72.5394
583.372  	72.4148
586.246  	72.3506
589.12  	72.3382
591.994  	72.0765
594.867  	72.048
597.741  	71.9534
600.615  	71.8179
603.489  	71.7785
606.362  	71.7606
609.236  	71.8757
612.11  	71.7853
614.984  	71.7204
617.858  	71.6239
620.731  	71.5615
623.605  	71.523
626.479  	71.5262
629.353  	71.3545
632.226  	71.4189
635.1  	71.3859
637.974  	71.5987
640.848  	71.6835
643.721  	71.8092
646.595  	71.9984
649.469  	72.2199
652.343  	72.4039
655.216  	72.6885
658.09  	72.9697
660.964  	73.1393
663.838  	73.477
666.711  	73.6615
669.585  	74.0854
672.459  	74.3173
675.333  	74.7609
678.206  	75.0651
681.08  	75.3465
683.954  	75.6794
686.828  	75.9926
689.701  	76.4075
692.575  	76.7695
695.449  	77.0838
698.323  	77.5009
701.196  	77.8156
704.07  	78.1952
706.944  	78.6223
709.818  	79.0046
712.691  	79.3638
715.565  	79.7919
718.439  	80.0754
721.313  	80.4441
724.186  	80.8777
727.06  	81.1634
729.934  	81.6527
732.808  	81.9488
735.681  	82.2021
738.555  	82.5789
741.429  	82.9347
744.303  	83.299
747.177  	83.6037
750.05  	84.0117
752.924  	84.3757
755.798  	84.6901
758.672  	85.0059
761.545  	85.3456
764.419  	85.7157
767.293  	86.1229
770.167  	86.5222
773.04  	86.7726
775.914  	87.1041
778.788  	87.3452
781.662  	87.6505
784.535  	88.0167
787.409  	88.2421
790.283  	88.5221
793.157  	88.5763
796.03  	88.7441
798.904  	88.6325
801.778  	88.2389
804.652  	87.421
807.525  	85.1051
810.399  	79.0812
813.273  	66.9956
816.147  	57.6099
819.02  	64.6446
821.894  	79.1184
824.768  	86.3495
827.642  	88.8661
830.515  	90.0321
833.389  	90.7732
836.263  	91.2964
839.137  	91.6299
842.01  	91.8149
844.884  	92.0884
847.758  	92.3088
850.632  	92.4692
853.505  	92.6267
856.379  	92.7714
859.253  	92.8368
862.127  	93.0132
865.001  	93.0291
867.874  	93.06
870.748  	93.0899
873.622  	93.1243
876.496  	93.1977
879.369  	93.143
882.243  	93.08
885.117  	93.0325
887.991  	93.0145
890.864  	92.9386
893.738  	92.7837
896.612  	92.6595
899.486  	92.4122
902.359  	92.1725
905.233  	91.896
908.107  	91.49
910.981  	90.8685
913.854  	90.1573
916.728  	89.1437
919.602  	87.9752
922.476  	86.9582
925.349  	85.7208
928.223  	83.7277
931.097  	80.6643
933.971  	76.692
936.844  	72.0615
939.718  	65.5651
942.592  	55.59
945.466  	43.6386
948.339  	33.7954
951.213  	31.6854
954.087  	40.9884
956.961  	56.795
959.834  	72.3529
962.708  	82.1741
965.582  	86.8925
968.456  	89.2041
971.329  	90.524
974.203  	91.3767
977.077  	91.8562
979.951  	92.2252
982.824  	92.553
985.698  	92.9549
988.572  	93.3378
991.446  	93.5121
994.32  	93.6825
997.193  	93.8248
1000.07  	93.8568
1002.94  	93.8751
1005.81  	93.9024
1008.69  	93.9299
1011.56  	93.859
1014.44  	93.8512
1017.31  	93.7773
1020.18  	93.7647
1023.06  	93.6615
1025.93  	93.5519
1028.8  	93.4522
1031.68  	93.3614
1034.55  	93.3012
1037.43  	93.133
1040.3  	92.9797
1043.17  	92.7592
1046.05  	92.5323
1048.92  	92.3144
1051.79  	92.0458
1054.67  	91.6699
1057.54  	91.2827
1060.42  	90.8292
1063.29  	90.2538
1066.16  	89.5825
1069.04  	88.7866
1071.91  	87.94
1074.78  	86.9089
1077.66  	85.5912
1080.53  	84.0357
1083.41  	81.9433
1086.28  	79.4231
1089.15  	76.338
1092.03  	72.8457
1094.9  	69.1886
1097.77  	65.3341
1100.65  	61.9609
1103.52  	59.6515
1106.4  	58.6885
1109.27  	58.8764
1112.14  	59.912
1115.02  	61.2732
1117.89  	61.8944
1120.76  	60.1465
1123.64  	55.9915
1126.51  	52.4118
1129.39  	52.6986
1132.26  	57.1042
1135.13  	63.6182
1138.01  	69.0737
1140.88  	72.1197
1143.75  	73.0109
1146.63  	72.4184
1149.5  	70.4719
1152.38  	67.4439
1155.25  	63.83
1158.12  	60.8679
1161  	60.4956
1163.87  	63.9442
1166.74  	70.8761
1169.62  	78.6961
1172.49  	84.5866
1175.37  	87.9839
1178.24  	89.8078
1181.11  	90.7067
1183.99  	91.0822
1186.86  	91.2527
1189.73  	91.4896
1192.61  	91.8232
1195.48  	92.1256
1198.36  	92.3465
1201.23  	92.4278
1204.1  	92.4493
1206.98  	92.4541
1209.85  	92.4073
1212.72  	92.3637
1215.6  	92.2824
1218.47  	92.165
1221.35  	92.0982
1224.22  	92.008
1227.09  	91.8873
1229.97  	91.783
1232.84  	91.7486
1235.72  	91.6693
1238.59  	91.5995
1241.46  	91.3786
1244.34  	91.1834
1247.21  	90.9477
1250.08  	90.6925
1252.96  	90.4231
1255.83  	90.155
1258.71  	89.851
1261.58  	89.5341
1264.45  	89.0893
1267.33  	88.5824
1270.2  	87.9584
1273.07  	87.1701
1275.95  	86.2736
1278.82  	85.1458
1281.7  	83.8682
1284.57  	82.4225
1287.44  	80.8988
1290.32  	79.3663
1293.19  	77.9567
1296.06  	76.6595
1298.94  	75.559
1301.81  	74.807
1304.69  	74.4697
1307.56  	74.457
1310.43  	74.7555
1313.31  	75.3053
1316.18  	76.2977
1319.05  	77.6912
1321.93  	79.3695
1324.8  	81.0322
1327.68  	82.377
1330.55  	82.9912
1333.42  	82.6573
1336.3  	81.3289
1339.17  	79.55
1342.04  	79.6107
1344.92  	81.8395
1347.79  	83.7329
1350.67  	84.9346
1353.54  	85.0073
1356.41  	83.6487
1359.29  	81.1424
1362.16  	76.7416
1365.03  	71.9668
1367.91  	70.1142
1370.78  	71.1376
1373.66  	70.6945
1376.53  	66.9186
1379.4  	65.3148
1382.28  	70.2424
1385.15  	76.5223
1388.02  	80.9152
1390.9  	83.2222
1393.77  	83.2802
1396.65  	83.049
1399.52  	82.6231
1402.39  	82.1384
1405.27  	81.5904
1408.14  	81.2651
1411.01  	81.4601
1413.89  	82.0482
1416.76  	82.6881
1419.64  	83.5116
1422.51  	84.01
1425.38  	84.5682
1428.26  	85.0183
1431.13  	85.5283
1434  	86.0295
1436.88  	86.5287
1439.75  	86.9616
1442.63  	87.2732
1445.5  	87.2319
1448.37  	86.4192
1451.25  	85.089
1454.12  	83.7218
1456.99  	82.9713
1459.87  	81.8389
1462.74  	80.4115
1465.62  	79.1657
1468.49  	79.1347
1471.36  	81.3766
1474.24  	84.7615
1477.11  	86.7049
1479.98  	88.023
1482.86  	89.1815
1485.73  	90.0006
1488.61  	90.5492
1491.48  	91.0655
1494.35  	91.5409
1497.23  	91.9848
1500.1  	92.359
1502.97  	92.7277
1505.85  	92.8672
1508.72  	93.0481
1511.6  	93.209
1514.47  	93.3394
1517.34  	93.431
1520.22  	93.5933
1523.09  	93.7275
1525.96  	93.7749
1528.84  	93.8815
1531.71  	93.9587
1534.59  	93.9994
1537.46  	94.0588
1540.33  	94.1121
1543.21  	94.1571
1546.08  	94.2108
1548.95  	94.2359
1551.83  	94.2731
1554.7  	94.3336
1557.58  	94.3565
1560.45  	94.4016
1563.32  	94.4315
1566.2  	94.4703
1569.07  	94.4587
1571.94  	94.4896
1574.82  	94.5015
1577.69  	94.5228
1580.57  	94.5043
1583.44  	94.5063
1586.31  	94.4967
1589.19  	94.4863
1592.06  	94.4851
1594.93  	94.4803
1597.81  	94.5095
1600.68  	94.4784
1603.56  	94.4858
1606.43  	94.4801
1609.3  	94.4182
1612.18  	94.4711
1615.05  	94.4222
1617.92  	94.3873
1620.8  	94.3202
1623.67  	94.2718
1626.55  	94.247
1629.42  	94.1809
1632.29  	94.1059
1635.17  	94.1345
1638.04  	94.0518
1640.91  	94.0115
1643.79  	94.0353
1646.66  	94.0164
1649.54  	94.0022
1652.41  	94.0096
1655.28  	94.0755
1658.16  	93.9962
1661.03  	94.0126
1663.9  	94.0538
1666.78  	94.0385
1669.65  	94.0651
1672.53  	94.1041
1675.4  	94.1101
1678.27  	94.1932
1681.15  	94.1829
1684.02  	94.1933
1686.89  	94.2528
1689.77  	94.2427
1692.64  	94.2538
1695.52  	94.2825
1698.39  	94.2303
1701.26  	94.2649
1704.14  	94.134
1707.01  	94.0218
1709.88  	93.9726
1712.76  	93.9868
1715.63  	94.0581
1718.51  	94.145
1721.38  	94.2118
1724.25  	94.2121
1727.13  	94.2458
1730  	94.2249
1732.87  	94.2155
1735.75  	94.2091
1738.62  	94.2146
1741.5  	94.1892
1744.37  	94.139
1747.24  	94.1215
1750.12  	94.096
1752.99  	94.0535
1755.86  	93.9788
1758.74  	93.8875
1761.61  	93.8046
1764.49  	93.6872
1767.36  	93.6607
1770.23  	93.7365
1773.11  	93.8673
1775.98  	93.9813
1778.85  	94.0953
1781.73  	94.1908
1784.6  	94.2552
1787.48  	94.3193
1790.35  	94.3393
1793.22  	94.3288
1796.1  	94.3214
1798.97  	94.2952
1801.84  	94.3427
1804.72  	94.402
1807.59  	94.3626
1810.47  	94.3448
1813.34  	94.3529
1816.21  	94.3702
1819.09  	94.3878
1821.96  	94.3537
1824.83  	94.3556
1827.71  	94.3526
1830.58  	94.3158
1833.46  	94.3242
1836.33  	94.3211
1839.2  	94.3743
1842.08  	94.3044
1844.95  	94.3726
1847.83  	94.383
1850.7  	94.352
1853.57  	94.3596
1856.45  	94.38
1859.32  	94.3323
1862.19  	94.3161
1865.07  	94.3322
1867.94  	94.3204
1870.82  	94.2713
1873.69  	94.2946
1876.56  	94.2428
1879.44  	94.245
1882.31  	94.2811
1885.18  	94.3086
1888.06  	94.2557
1890.93  	94.3283
1893.81  	94.3659
1896.68  	94.3
1899.55  	94.2132
1902.43  	94.2184
1905.3  	94.2906
1908.17  	94.2629
1911.05  	94.325
1913.92  	94.2854
1916.8  	94.3155
1919.67  	94.2949
1922.54  	94.2872
1925.42  	94.2711
1928.29  	94.3024
1931.16  	94.3095
1934.04  	94.3208
1936.91  	94.267
1939.79  	94.3302
1942.66  	94.2844
1945.53  	94.3435
1948.41  	94.3625
1951.28  	94.4051
1954.15  	94.4119
1957.03  	94.3923
1959.9  	94.3674
1962.78  	94.3678
1965.65  	94.5978
1968.52  	94.4984
1971.4  	94.5152
1974.27  	94.6671
1977.14  	94.5123
1980.02  	94.5187
1982.89  	94.3039
1985.77  	94.2351
1988.64  	94.212
1991.51  	94.4349
1994.39  	94.4468
1997.26  	94.2745
2000.13  	94.3844
2003.01  	94.3579
2005.88  	94.7484
2008.76  	94.7866
2011.63  	94.806
2014.5  	94.8603
2017.38  	94.5631
2020.25  	94.6453
2023.12  	94.9625
2026  	94.3664
2028.87  	94.7159
2031.75  	95.0613
2034.62  	94.5825
2037.49  	94.8019
2040.37  	94.5215
2043.24  	94.2792
2046.11  	94.4426
2048.99  	94.2825
2051.86  	94.5238
2054.74  	94.2101
2057.61  	94.1544
2060.48  	94.2141
2063.36  	94.2416
2066.23  	93.8529
2069.1  	93.9961
2071.98  	93.9163
2074.85  	94.0031
2077.73  	93.9651
2080.6  	93.7828
2083.47  	93.8475
2086.35  	93.9169
2089.22  	93.8128
2092.09  	93.8497
2094.97  	94.0226
2097.84  	93.8486
2100.72  	93.844
2103.59  	93.8236
2106.46  	93.9025
2109.34  	93.9394
2112.21  	93.6872
2115.08  	93.6518
2117.96  	93.8405
2120.83  	93.6593
2123.71  	93.6987
2126.58  	93.8347
2129.45  	93.8517
2132.33  	93.7837
2135.2  	93.7102
2138.07  	93.6296
2140.95  	93.8414
2143.82  	93.7244
2146.7  	93.7942
2149.57  	93.8203
2152.44  	94.2656
2155.32  	93.9255
2158.19  	94.7495
2161.06  	94.444
2163.94  	93.6858
2166.81  	94.1353
2169.69  	94.2461
2172.56  	93.9294
2175.43  	93.902
2178.31  	94.0688
2181.18  	93.7884
2184.05  	93.5655
2186.93  	93.3506
2189.8  	93.7502
2192.68  	93.5322
2195.55  	93.5865
2198.42  	93.689
2201.3  	93.7085
2204.17  	93.5722
2207.04  	93.8174
2209.92  	93.8411
2212.79  	93.7064
2215.67  	93.5482
2218.54  	93.8376
2221.41  	93.5348
2224.29  	93.7327
2227.16  	93.7449
2230.03  	93.4401
2232.91  	93.7
2235.78  	93.5324
2238.66  	93.6159
2241.53  	93.541
2244.4  	93.5933
2247.28  	93.5295
2250.15  	93.483
2253.02  	93.4719
2255.9  	93.3472
2258.77  	93.3458
2261.65  	93.4753
2264.52  	93.3654
2267.39  	93.3621
2270.27  	93.3115
2273.14  	93.2246
2276.01  	93.2108
2278.89  	93.2869
2281.76  	93.1919
2284.64  	93.1832
2287.51  	93.1071
2290.38  	93.1459
2293.26  	93.1071
2296.13  	93.073
2299  	92.9626
2301.88  	93.0652
2304.75  	93.0593
2307.63  	93.0082
2310.5  	93.0032
2313.37  	92.9533
2316.25  	92.9595
2319.12  	92.9763
2321.99  	92.9672
2324.87  	92.9859
2327.74  	93.0509
2330.62  	93.0209
2333.49  	93.0108
2336.36  	93.0177
2339.24  	93.0488
2342.11  	93.0789
2344.98  	93.0243
2347.86  	92.9699
2350.73  	92.9436
2353.61  	92.879
2356.48  	92.8583
2359.35  	92.8718
2362.23  	92.8035
2365.1  	92.8266
2367.97  	92.8452
2370.85  	92.9009
2373.72  	92.7655
2376.6  	92.7342
2379.47  	92.6795
2382.34  	92.6549
2385.22  	92.6051
2388.09  	92.5829
2390.96  	92.4605
2393.84  	92.4102
2396.71  	92.4128
2399.59  	92.4072
2402.46  	92.228
2405.33  	92.3182
2408.21  	92.2974
2411.08  	92.2848
2413.95  	92.306
2416.83  	92.4065
2419.7  	92.282
2422.58  	92.3555
2425.45  	92.4208
2428.32  	92.3803
2431.2  	92.4898
2434.07  	92.3917
2436.94  	92.4557
2439.82  	92.5239
2442.69  	92.4998
2445.57  	92.4496
2448.44  	92.4921
2451.31  	92.3886
2454.19  	92.5075
2457.06  	92.3903
2459.93  	92.3217
2462.81  	92.2154
2465.68  	92.2212
2468.56  	92.217
2471.43  	92.213
2474.3  	92.1748
2477.18  	92.1719
2480.05  	92.2013
2482.93  	92.1713
2485.8  	92.1668
2488.67  	92.1678
2491.55  	92.1216
2494.42  	92.1055
2497.29  	92.0721
2500.17  	91.9606
2503.04  	91.9657
2505.92  	91.8568
2508.79  	91.8514
2511.66  	91.8798
2514.54  	91.799
2517.41  	91.7304
2520.28  	91.71
2523.16  	91.7712
2526.03  	91.7346
2528.91  	91.7622
2531.78  	91.7263
2534.65  	91.7623
2537.53  	91.836
2540.4  	91.7762
2543.27  	91.7553
2546.15  	91.7154
2549.02  	91.7732
2551.9  	91.8217
2554.77  	91.8204
2557.64  	91.695
2560.52  	91.7189
2563.39  	91.6989
2566.26  	91.6382
2569.14  	91.4876
2572.01  	91.3956
2574.89  	91.448
2577.76  	91.423
2580.63  	91.4066
2583.51  	91.3159
2586.38  	91.3065
2589.25  	91.3481
2592.13  	91.345
2595  	91.3408
2597.88  	91.3548
2600.75  	91.309
2603.62  	91.3243
2606.5  	91.3687
2609.37  	91.3111
2612.24  	91.3225
2615.12  	91.3478
2617.99  	91.3058
2620.87  	91.3456
2623.74  	91.2991
2626.61  	91.2865
2629.49  	91.2778
2632.36  	91.2005
2635.23  	91.1811
2638.11  	91.0823
2640.98  	91.0317
2643.86  	90.9025
2646.73  	90.7928
2649.6  	90.6062
2652.48  	90.4261
2655.35  	90.3652
2658.22  	90.267
2661.1  	90.2466
2663.97  	90.3698
2666.85  	90.4922
2669.72  	90.6611
2672.59  	90.776
2675.47  	90.8823
2678.34  	90.8916
2681.21  	90.8691
2684.09  	90.8252
2686.96  	90.7535
2689.84  	90.6662
2692.71  	90.5294
2695.58  	90.4098
2698.46  	90.33
2701.33  	90.2682
2704.2  	90.251
2707.08  	90.2101
2709.95  	90.1796
2712.83  	90.1139
2715.7  	90.0655
2718.57  	90.0291
2721.45  	89.9902
2724.32  	90.0406
2727.19  	90.0603
2730.07  	90.147
2732.94  	90.1683
2735.82  	90.1182
2738.69  	90.1658
2741.56  	90.2071
2744.44  	90.1809
2747.31  	90.1755
2750.18  	90.1579
2753.06  	90.0791
2755.93  	90.0889
2758.81  	90.0155
2761.68  	89.9246
2764.55  	89.8746
2767.43  	89.8276
2770.3  	89.7329
2773.17  	89.592
2776.05  	89.5888
2778.92  	89.5491
2781.8  	89.4168
2784.67  	89.3706
2787.54  	89.3196
2790.42  	89.2709
2793.29  	89.1873
2796.16  	89.1456
2799.04  	89.0298
2801.91  	88.9053
2804.79  	88.7653
2807.66  	88.6728
2810.53  	88.5654
2813.41  	88.3882
2816.28  	88.2551
2819.15  	88.2443
2822.03  	88.132
2824.9  	87.998
2827.78  	87.8241
2830.65  	87.6249
2833.52  	87.4432
2836.4  	87.2201
2839.27  	86.9871
2842.14  	86.6815
2845.02  	86.3437
2847.89  	85.9264
2850.77  	85.472
2853.64  	84.9663
2856.51  	84.4349
2859.39  	83.8576
2862.26  	83.3134
2865.13  	82.7374
2868.01  	82.1576
2870.88  	81.523
2873.76  	80.8915
2876.63  	80.3518
2879.5  	79.8904
2882.38  	79.7196
2885.25  	79.823
2888.12  	80.1394
2891  	80.4864
2893.87  	80.8572
2896.75  	81.1948
2899.62  	81.4331
2902.49  	81.6002
2905.37  	81.7101
2908.24  	81.6687
2911.11  	81.4686
2913.99  	81.2004
2916.86  	81.0236
2919.74  	80.7979
2922.61  	80.6525
2925.48  	80.4185
2928.36  	80.077
2931.23  	79.7567
2934.1  	79.883
2936.98  	80.2474
2939.85  	80.8284
2942.73  	81.5357
2945.6  	82.1649
2948.47  	82.1586
2951.35  	81.3956
2954.22  	79.7819
2957.09  	77.0508
2959.97  	72.82
2962.84  	67.2662
2965.72  	61.2566
2968.59  	56.9038
2971.46  	57.1089
2974.34  	61.5468
2977.21  	67.5103
2980.08  	73.5474
2982.96  	78.7476
2985.83  	82.6878
2988.71  	85.3393
2991.58  	87.0028
2994.45  	88.1353
2997.33  	88.7815
3000.2  	89.3386
3003.07  	89.7033
3005.95  	89.9073
3008.82  	90.0988
3011.7  	90.2088
3014.57  	90.2538
3017.44  	90.404
3020.32  	90.423
3023.19  	90.522
3026.06  	90.4906
3028.94  	90.4933
3031.81  	90.5206
3034.69  	90.5465
3037.56  	90.4975
3040.43  	90.4616
3043.31  	90.4459
3046.18  	90.3295
3049.05  	90.3023
3051.93  	90.2598
3054.8  	90.258
3057.68  	90.175
3060.55  	90.0268
3063.42  	90.0234
3066.3  	89.9292
3069.17  	89.8337
3072.04  	89.7577
3074.92  	89.7523
3077.79  	89.6145
3080.67  	89.5054
3083.54  	89.4667
3086.41  	89.4451
3089.29  	89.2735
3092.16  	89.1686
3095.04  	89.0474
3097.91  	88.9585
3100.78  	88.8251
3103.66  	88.7268
3106.53  	88.6097
3109.4  	88.4725
3112.28  	88.3616
3115.15  	88.1738
3118.03  	88.1754
3120.9  	87.9917
3123.77  	87.8046
3126.65  	87.65
3129.52  	87.5935
3132.39  	87.3096
3135.27  	87.1985
3138.14  	87.073
3141.02  	86.7877
3143.89  	86.6337
3146.76  	86.4233
3149.64  	86.212
3152.51  	86.0237
3155.38  	85.8031
3158.26  	85.5374
3161.13  	85.4192
3164.01  	85.1685
3166.88  	84.8661
3169.75  	84.6658
3172.63  	84.3537
3175.5  	84.0899
3178.37  	83.8759
3181.25  	83.4597
3184.12  	83.2465
3187  	82.8744
3189.87  	82.672
3192.74  	82.3572
3195.62  	82.0633
3198.49  	81.7185
3201.36  	81.3652
3204.24  	81.1014
3207.11  	80.8163
3209.99  	80.4931
3212.86  	80.1101
3215.73  	79.9193
3218.61  	79.5009
3221.48  	79.1559
3224.35  	78.918
3227.23  	78.5412
3230.1  	78.1302
3232.98  	77.823
3235.85  	77.4342
3238.72  	77.1974
3241.6  	76.8115
3244.47  	76.5984
3247.34  	76.197
3250.22  	75.9245
3253.09  	75.6483
3255.97  	75.3549
3258.84  	75.1151
3261.71  	74.923
3264.59  	74.615
3267.46  	74.3346
3270.33  	74.1161
3273.21  	73.9674
3276.08  	73.6814
3278.96  	73.4626
3281.83  	73.333
3284.7  	73.0858
3287.58  	72.8846
3290.45  	72.7752
3293.32  	72.5422
3296.2  	72.4458
3299.07  	72.3871
3301.95  	72.1574
3304.82  	72.0329
3307.69  	71.9597
3310.57  	71.9938
3313.44  	71.8539
3316.31  	71.8029
3319.19  	71.7188
3322.06  	71.7281
3324.94  	71.6325
3327.81  	71.623
3330.68  	71.6635
3333.56  	71.6815
3336.43  	71.6703
3339.3  	71.7748
3342.18  	71.8041
3345.05  	71.8828
3347.93  	71.9791
3350.8  	72.0702
3353.67  	72.3101
3356.55  	72.4955
3359.42  	72.687
3362.29  	72.8474
3365.17  	73.1348
3368.04  	73.4249
3370.92  	73.6772
3373.79  	73.992
3376.66  	74.2628
3379.54  	74.5212
3382.41  	74.8595
3385.28  	75.2741
3388.16  	75.5296
3391.03  	75.7924
3393.91  	76.3499
3396.78  	76.5905
3399.65  	76.9363
3402.53  	77.285
3405.4  	77.6292
3408.27  	77.9201
3411.15  	78.2948
3414.02  	78.5181
3416.9  	79.0629
3419.77  	79.3974
3422.64  	79.9222
3425.52  	80.1547
3428.39  	80.4461
3431.26  	80.7006
3434.14  	81.0809
3437.01  	81.4439
3439.89  	81.8868
3442.76  	82.1268
3445.63  	82.3892
3448.51  	82.6951
3451.38  	83.0382
3454.25  	83.4881
3457.13  	83.6947
3460  	84.0733
3462.88  	84.3847
3465.75  	84.7558
3468.62  	84.9722
3471.5  	85.2218
3474.37  	85.524
3477.24  	85.8187
3480.12  	86.1226
3482.99  	86.3004
3485.87  	86.6734
3488.74  	86.8948
3491.61  	87.1479
3494.49  	87.391
3497.36  	87.6668
3500.23  	87.8717
3503.11  	87.9626
3505.98  	88.3356
3508.86  	88.5943
3511.73  	88.6352
3514.6  	88.9068
3517.48  	89.1863
3520.35  	89.3666
3523.22  	89.4448
3526.1  	89.5472
3528.97  	89.7867
3531.85  	90.0841
3534.72  	90.1815
3537.59  	90.2625
3540.47  	90.3798
3543.34  	90.512
3546.21  	90.5552
3549.09  	90.7797
3551.96  	90.8548
3554.84  	91.0196
3557.71  	91.1736
3560.58  	91.236
3563.46  	91.3684
3566.33  	91.4428
3569.2  	91.5412
3572.08  	91.5516
3574.95  	91.6797
3577.83  	91.6929
3580.7  	91.7731
3583.57  	91.8571
3586.45  	91.8549
3589.32  	91.8782
3592.19  	92.0033
3595.07  	92.1304
3597.94  	92.1227
3600.82  	92.1105
3603.69  	92.1843
3606.56  	92.2029
3609.44  	92.2492
3612.31  	92.2065
3615.18  	92.2889
3618.06  	92.3233
3620.93  	92.4198
3623.81  	92.3767
3626.68  	92.3831
3629.55  	92.4074
3632.43  	92.4607
3635.3  	92.4559
3638.17  	92.5333
3641.05  	92.5257
3643.92  	92.5177
3646.8  	92.4931
3649.67  	92.5435
3652.54  	92.6575
3655.42  	92.6036
3658.29  	92.6292
3661.16  	92.6287
3664.04  	92.5718
3666.91  	92.6164
3669.79  	92.5934
3672.66  	92.6243
3675.53  	92.6074
3678.41  	92.7069
3681.28  	92.6844
3684.15  	92.6994
3687.03  	92.6318
3689.9  	92.7461
3692.78  	92.8076
3695.65  	92.7358
3698.52  	92.6822
3701.4  	92.7422
3704.27  	92.7592
3707.15  	92.7255
3710.02  	92.6796
3712.89  	92.7368
3715.77  	92.733
3718.64  	92.7436
3721.51  	92.679
3724.39  	92.6389
3727.26  	92.6824
3730.14  	92.6608
3733.01  	92.6464
3735.88  	92.6458
3738.76  	92.7261
3741.63  	92.696
3744.5  	92.7715
3747.38  	92.7129
3750.25  	92.6414
3753.13  	92.8328
3756  	92.7248
3758.87  	92.7719
3761.75  	92.7948
3764.62  	92.7456
3767.49  	92.7305
3770.37  	92.7009
3773.24  	92.7258
3776.12  	92.7359
3778.99  	92.6571
3781.86  	92.6603
3784.74  	92.6208
3787.61  	92.613
3790.48  	92.5462
3793.36  	92.5842
3796.23  	92.5498
3799.11  	92.5438
3801.98  	92.5678
3804.85  	92.5746
3807.73  	92.6019
3810.6  	92.5648
3813.47  	92.5816
3816.35  	92.6008
3819.22  	92.5713
3822.1  	92.6005
3824.97  	92.5798
3827.84  	92.5212
3830.72  	92.5457
3833.59  	92.5494
3836.46  	92.5052
3839.34  	92.5368
3842.21  	92.5636
3845.09  	92.5619
3847.96  	92.5459
3850.83  	92.4931
3853.71  	92.5445
3856.58  	92.66
3859.45  	92.5446
3862.33  	92.6368
3865.2  	92.5829
3868.08  	92.6213
3870.95  	92.6251
3873.82  	92.5088
3876.7  	92.6064
3879.57  	92.5352
3882.44  	92.5549
3885.32  	92.5523
3888.19  	92.5254
3891.07  	92.5259
3893.94  	92.6084
3896.81  	92.5516
3899.69  	92.5859
3902.56  	92.5668
3905.43  	92.5607
3908.31  	92.6586
3911.18  	92.6059
3914.06  	92.6093
3916.93  	92.6231
3919.8  	92.5936
3922.68  	92.5233
3925.55  	92.58
3928.42  	92.5214
3931.3  	92.5508
3934.17  	92.5299
3937.05  	92.5558
3939.92  	92.5681
3942.79  	92.5745
3945.67  	92.5217
3948.54  	92.5028
3951.41  	92.5226
3954.29  	92.4927
3957.16  	92.5113
3960.04  	92.5153
3962.91  	92.4502
3965.78  	92.4866
3968.66  	92.5439
3971.53  	92.5347
3974.4  	92.5288
3977.28  	92.4847
3980.15  	92.4852
3983.03  	92.4503
3985.9  	92.4885
3988.77  	92.4748
3991.65  	92.4968
3994.52  	92.4498
3997.39  	92.4675
4000.27  	92.4795