File: FTIR/MoS2_3H_1.txt
##TITLE=No Description
##DATA TYPE=INFRARED SPECTRUM
##XUNITS=1/CM
##YUNITS=%T
399.452  	79.1788
402.326  	77.45
405.2  	75.8835
408.073  	72.8997
410.947  	72.1991
413.821  	70.2141
416.695  	68.7633
419.568  	67.0516
422.442  	65.5313
425.316  	65.6392
428.19  	66.7836
431.063  	68.676
433.937  	70.5577
436.811  	71.914
439.685  	72.8641
442.558  	72.3544
445.432  	72.6917
448.306  	73.3121
451.18  	73.4046
454.053  	74.0191
456.927  	73.715
459.801  	73.6186
462.675  	73.8574
465.548  	72.5414
468.422  	70.5739
471.296  	72.3529
474.17  	72.5301
477.043  	71.4455
479.917  	69.8112
482.791  	67.9172
485.665  	66.9877
488.538  	67.219
491.412  	69.5255
494.286  	70.5341
497.16  	71.7151
500.034  	72.8689
502.907  	73.6959
505.781  	74.1757
508.655  	74.6196
511.529  	74.2706
514.402  	74.4943
517.276  	74.6521
520.15  	74.5027
523.024  	74.7272
525.897  	74.8236
528.771  	74.8967
531.645  	74.6447
534.519  	74.5397
537.392  	74.7182
540.266  	74.8358
543.14  	74.8461
546.014  	74.8198
548.887  	74.7337
551.761  	74.503
554.635  	74.1191
557.509  	73.9209
560.382  	73.8909
563.256  	73.7207
566.13  	73.4872
569.004  	73.0093
571.877  	72.7097
574.751  	72.5545
577.625  	72.4214
580.499  	72.4266
583.372  	72.2024
586.246  	72.0347
589.12  	72.0016
591.994  	71.7381
594.867  	71.6097
597.741  	71.5019
600.615  	71.4883
603.489  	71.5278
606.362  	71.4391
609.236  	71.3555
612.11  	71.2615
614.984  	71.2232
617.858  	71.2101
620.731  	71.1913
623.605  	71.1586
626.479  	71.0376
629.353  	71.0716
632.226  	70.9757
635.1  	71.2675
637.974  	71.2486
640.848  	71.3567
643.721  	71.569
646.595  	71.776
649.469  	72.0376
652.343  	72.2263
655.216  	72.5056
658.09  	72.7225
660.964  	72.9317
663.838  	73.2058
666.711  	73.3941
669.585  	73.8117
672.459  	74.0815
675.333  	74.3543
678.206  	74.749
681.08  	75.0885
683.954  	75.4318
686.828  	75.7738
689.701  	76.1822
692.575  	76.539
695.449  	76.886
698.323  	77.2503
701.196  	77.53
704.07  	77.9311
706.944  	78.3123
709.818  	78.6694
712.691  	79.0846
715.565  	79.4619
718.439  	79.8267
721.313  	80.2895
724.186  	80.6206
727.06  	80.9623
729.934  	81.246
732.808  	81.6786
735.681  	82.0268
738.555  	82.4016
741.429  	82.7603
744.303  	83.1059
747.177  	83.4568
750.05  	83.757
752.924  	84.1236
755.798  	84.4497
758.672  	84.8644
761.545  	85.1688
764.419  	85.4449
767.293  	85.8784
770.167  	86.2077
773.04  	86.5383
775.914  	86.8118
778.788  	87.1462
781.662  	87.3277
784.535  	87.6397
787.409  	87.9356
790.283  	88.1908
793.157  	88.3588
796.03  	88.4212
798.904  	88.3352
801.778  	87.953
804.652  	86.9853
807.525  	84.4424
810.399  	78.3035
813.273  	66.1498
816.147  	56.9009
819.02  	64.0677
821.894  	78.6995
824.768  	85.9343
827.642  	88.6349
830.515  	89.7905
833.389  	90.5008
836.263  	91.0147
839.137  	91.3603
842.01  	91.6675
844.884  	91.9028
847.758  	92.0176
850.632  	92.2265
853.505  	92.3386
856.379  	92.4976
859.253  	92.5869
862.127  	92.6945
865.001  	92.703
867.874  	92.7512
870.748  	92.9155
873.622  	92.8632
876.496  	92.8666
879.369  	92.8615
882.243  	92.8479
885.117  	92.7589
887.991  	92.6207
890.864  	92.5179
893.738  	92.3792
896.612  	92.1565
899.486  	91.9373
902.359  	91.6417
905.233  	91.2972
908.107  	90.8917
910.981  	90.2924
913.854  	89.4487
916.728  	88.2893
919.602  	87.0182
922.476  	85.9796
925.349  	84.7304
928.223  	82.5565
931.097  	79.4281
933.971  	75.4378
936.844  	70.8043
939.718  	64.4123
942.592  	54.448
945.466  	42.6658
948.339  	33.0437
951.213  	31.0407
954.087  	40.3731
956.961  	56.2601
959.834  	71.9345
962.708  	81.8608
965.582  	86.5993
968.456  	88.9742
971.329  	90.2887
974.203  	91.0943
977.077  	91.5783
979.951  	92.0121
982.824  	92.3625
985.698  	92.7465
988.572  	93.0717
991.446  	93.2329
994.32  	93.4427
997.193  	93.529
1000.07  	93.6027
1002.94  	93.5531
1005.81  	93.5764
1008.69  	93.5465
1011.56  	93.5323
1014.44  	93.4583
1017.31  	93.4448
1020.18  	93.3565
1023.06  	93.2595
1025.93  	93.1541
1028.8  	93.097
1031.68  	92.9933
1034.55  	92.8057
1037.43  	92.7043
1040.3  	92.55
1043.17  	92.3289
1046.05  	92.083
1048.92  	91.814
1051.79  	91.4459
1054.67  	91.1093
1057.54  	90.7519
1060.42  	90.1635
1063.29  	89.5477
1066.16  	88.8514
1069.04  	88.0634
1071.91  	87.1698
1074.78  	86.0626
1077.66  	84.7282
1080.53  	83.122
1083.41  	81.0026
1086.28  	78.4297
1089.15  	75.3781
1092.03  	71.8617
1094.9  	68.1624
1097.77  	64.3828
1100.65  	61.0219
1103.52  	58.7266
1106.4  	57.7867
1109.27  	58.0051
1112.14  	59.0618
1115.02  	60.3745
1117.89  	61.0105
1120.76  	59.3395
1123.64  	55.1883
1126.51  	51.6363
1129.39  	51.9962
1132.26  	56.4575
1135.13  	62.9507
1138.01  	68.4945
1140.88  	71.56
1143.75  	72.4434
1146.63  	71.7113
1149.5  	69.7755
1152.38  	66.7519
1155.25  	63.0801
1158.12  	60.1609
1161  	59.8148
1163.87  	63.3074
1166.74  	70.3328
1169.62  	78.2426
1172.49  	84.1697
1175.37  	87.6058
1178.24  	89.4503
1181.11  	90.3526
1183.99  	90.746
1186.86  	90.8722
1189.73  	91.0992
1192.61  	91.4458
1195.48  	91.7453
1198.36  	91.9728
1201.23  	92.0237
1204.1  	92.0594
1206.98  	92.0009
1209.85  	91.9841
1212.72  	91.9296
1215.6  	91.8567
1218.47  	91.7323
1221.35  	91.6748
1224.22  	91.5607
1227.09  	91.4335
1229.97  	91.3492
1232.84  	91.2733
1235.72  	91.1766
1238.59  	91.0358
1241.46  	90.8483
1244.34  	90.6437
1247.21  	90.3967
1250.08  	90.1365
1252.96  	89.8427
1255.83  	89.5903
1258.71  	89.2815
1261.58  	88.8957
1264.45  	88.4643
1267.33  	87.9429
1270.2  	87.2596
1273.07  	86.4665
1275.95  	85.5356
1278.82  	84.4271
1281.7  	83.1203
1284.57  	81.6655
1287.44  	80.0692
1290.32  	78.5613
1293.19  	77.1228
1296.06  	75.8517
1298.94  	74.7815
1301.81  	74.0192
1304.69  	73.6859
1307.56  	73.6984
1310.43  	74.0065
1313.31  	74.5983
1316.18  	75.5994
1319.05  	76.9616
1321.93  	78.6538
1324.8  	80.3322
1327.68  	81.664
1330.55  	82.3207
1333.42  	81.9653
1336.3  	80.6349
1339.17  	78.8519
1342.04  	78.8753
1344.92  	81.2107
1347.79  	83.069
1350.67  	84.2967
1353.54  	84.3182
1356.41  	82.9182
1359.29  	80.4146
1362.16  	75.9287
1365.03  	71.086
1367.91  	69.2736
1370.78  	70.3933
1373.66  	69.9657
1376.53  	66.1692
1379.4  	64.6227
1382.28  	69.6564
1385.15  	75.9877
1388.02  	80.4033
1390.9  	82.7119
1393.77  	82.7389
1396.65  	82.4599
1399.52  	82.0035
1402.39  	81.4952
1405.27  	80.9411
1408.14  	80.6539
1411.01  	80.831
1413.89  	81.4317
1416.76  	82.0898
1419.64  	82.8513
1422.51  	83.4522
1425.38  	83.9602
1428.26  	84.4152
1431.13  	84.9501
1434  	85.435
1436.88  	85.9011
1439.75  	86.3429
1442.63  	86.6765
1445.5  	86.5937
1448.37  	85.7464
1451.25  	84.4075
1454.12  	83.0839
1456.99  	82.3311
1459.87  	81.1324
1462.74  	79.684
1465.62  	78.414
1468.49  	78.4492
1471.36  	80.7264
1474.24  	84.1901
1477.11  	86.0972
1479.98  	87.4612
1482.86  	88.624
1485.73  	89.4454
1488.61  	90.0049
1491.48  	90.5455
1494.35  	91.0246
1497.23  	91.4606
1500.1  	91.8449
1502.97  	92.2033
1505.85  	92.3562
1508.72  	92.5084
1511.6  	92.696
1514.47  	92.7941
1517.34  	92.9075
1520.22  	93.0374
1523.09  	93.1591
1525.96  	93.2635
1528.84  	93.3685
1531.71  	93.4467
1534.59  	93.4853
1537.46  	93.4931
1540.33  	93.5571
1543.21  	93.6053
1546.08  	93.6318
1548.95  	93.6512
1551.83  	93.6834
1554.7  	93.7174
1557.58  	93.7862
1560.45  	93.7649
1563.32  	93.8068
1566.2  	93.8413
1569.07  	93.8602
1571.94  	93.8471
1574.82  	93.8871
1577.69  	93.8917
1580.57  	93.8825
1583.44  	93.8733
1586.31  	93.8611
1589.19  	93.8636
1592.06  	93.8487
1594.93  	93.8622
1597.81  	93.8467
1600.68  	93.8772
1603.56  	93.8071
1606.43  	93.798
1609.3  	93.7665
1612.18  	93.8104
1615.05  	93.737
1617.92  	93.7225
1620.8  	93.6874
1623.67  	93.6336
1626.55  	93.5844
1629.42  	93.4948
1632.29  	93.5035
1635.17  	93.4951
1638.04  	93.4205
1640.91  	93.4045
1643.79  	93.3719
1646.66  	93.291
1649.54  	93.3099
1652.41  	93.331
1655.28  	93.3042
1658.16  	93.3133
1661.03  	93.278
1663.9  	93.2821
1666.78  	93.302
1669.65  	93.3114
1672.53  	93.3576
1675.4  	93.3649
1678.27  	93.3796
1681.15  	93.3858
1684.02  	93.4086
1686.89  	93.5023
1689.77  	93.5125
1692.64  	93.5362
1695.52  	93.5044
1698.39  	93.4531
1701.26  	93.4821
1704.14  	93.4005
1707.01  	93.2854
1709.88  	93.2297
1712.76  	93.2283
1715.63  	93.2942
1718.51  	93.3563
1721.38  	93.423
1724.25  	93.4575
1727.13  	93.4731
1730  	93.4331
1732.87  	93.4135
1735.75  	93.4554
1738.62  	93.3982
1741.5  	93.4151
1744.37  	93.3599
1747.24  	93.3233
1750.12  	93.2628
1752.99  	93.258
1755.86  	93.1779
1758.74  	93.1165
1761.61  	93.0091
1764.49  	92.9148
1767.36  	92.8649
1770.23  	92.9023
1773.11  	93.0172
1775.98  	93.1802
1778.85  	93.264
1781.73  	93.3855
1784.6  	93.4359
1787.48  	93.5285
1790.35  	93.4618
1793.22  	93.496
1796.1  	93.4972
1798.97  	93.5076
1801.84  	93.4589
1804.72  	93.5697
1807.59  	93.5494
1810.47  	93.5701
1813.34  	93.6081
1816.21  	93.567
1819.09  	93.5564
1821.96  	93.55
1824.83  	93.4911
1827.71  	93.497
1830.58  	93.4549
1833.46  	93.4168
1836.33  	93.4439
1839.2  	93.4593
1842.08  	93.4308
1844.95  	93.4652
1847.83  	93.448
1850.7  	93.4279
1853.57  	93.395
1856.45  	93.4452
1859.32  	93.3872
1862.19  	93.4172
1865.07  	93.4057
1867.94  	93.4314
1870.82  	93.3832
1873.69  	93.3952
1876.56  	93.4101
1879.44  	93.3472
1882.31  	93.3856
1885.18  	93.2692
1888.06  	93.3724
1890.93  	93.3394
1893.81  	93.419
1896.68  	93.346
1899.55  	93.3477
1902.43  	93.2815
1905.3  	93.3226
1908.17  	93.3266
1911.05  	93.3621
1913.92  	93.3317
1916.8  	93.328
1919.67  	93.3867
1922.54  	93.3284
1925.42  	93.3286
1928.29  	93.2883
1931.16  	93.3528
1934.04  	93.478
1936.91  	93.2372
1939.79  	93.3054
1942.66  	93.4309
1945.53  	93.3823
1948.41  	93.3353
1951.28  	93.2612
1954.15  	93.1193
1957.03  	93.3094
1959.9  	93.4398
1962.78  	93.0896
1965.65  	93.1795
1968.52  	93.6229
1971.4  	93.6546
1974.27  	93.425
1977.14  	93.4016
1980.02  	93.5023
1982.89  	93.5537
1985.77  	93.458
1988.64  	93.452
1991.51  	93.4631
1994.39  	93.5299
1997.26  	93.2611
2000.13  	93.2386
2003.01  	93.3839
2005.88  	93.6218
2008.76  	93.675
2011.63  	93.543
2014.5  	93.3524
2017.38  	93.5
2020.25  	93.7489
2023.12  	93.3203
2026  	93.4102
2028.87  	93.6363
2031.75  	93.5906
2034.62  	93.8229
2037.49  	93.6475
2040.37  	93.6188
2043.24  	93.3627
2046.11  	93.5827
2048.99  	93.2179
2051.86  	93.3074
2054.74  	93.2339
2057.61  	93.1355
2060.48  	93.1765
2063.36  	93.0797
2066.23  	93.0448
2069.1  	92.8482
2071.98  	93.0987
2074.85  	92.9576
2077.73  	92.9798
2080.6  	92.8633
2083.47  	92.8817
2086.35  	93.0028
2089.22  	92.865
2092.09  	93.0421
2094.97  	92.982
2097.84  	92.8571
2100.72  	93.0263
2103.59  	92.983
2106.46  	92.9833
2109.34  	92.9688
2112.21  	92.8576
2115.08  	92.9769
2117.96  	92.8957
2120.83  	92.9821
2123.71  	92.9956
2126.58  	93.0487
2129.45  	93.128
2132.33  	93.033
2135.2  	93.2877
2138.07  	93.3258
2140.95  	93.1358
2143.82  	93.264
2146.7  	93.3454
2149.57  	93.3671
2152.44  	93.8808
2155.32  	93.1617
2158.19  	93.7144
2161.06  	93.864
2163.94  	93.6304
2166.81  	93.3796
2169.69  	93.5788
2172.56  	93.2708
2175.43  	93.7326
2178.31  	93.2952
2181.18  	93.4246
2184.05  	92.9156
2186.93  	92.818
2189.8  	93.3089
2192.68  	92.9807
2195.55  	93.0782
2198.42  	93.0487
2201.3  	93.0512
2204.17  	93.2323
2207.04  	93.152
2209.92  	93.0028
2212.79  	93.1272
2215.67  	93.0454
2218.54  	92.9638
2221.41  	93.2042
2224.29  	92.6651
2227.16  	92.9517
2230.03  	93.0788
2232.91  	92.9903
2235.78  	92.9341
2238.66  	92.9426
2241.53  	92.8165
2244.4  	92.9126
2247.28  	92.7486
2250.15  	92.7874
2253.02  	92.6987
2255.9  	92.7234
2258.77  	92.5512
2261.65  	92.55
2264.52  	92.4623
2267.39  	92.4393
2270.27  	92.3506
2273.14  	92.3639
2276.01  	92.3265
2278.89  	92.2449
2281.76  	92.2851
2284.64  	92.1983
2287.51  	92.1401
2290.38  	92.1454
2293.26  	92.2031
2296.13  	92.1294
2299  	92.1746
2301.88  	92.2319
2304.75  	92.1901
2307.63  	92.131
2310.5  	92.1246
2313.37  	92.1036
2316.25  	92.1223
2319.12  	92.0496
2321.99  	92.0791
2324.87  	92.1278
2327.74  	92.2329
2330.62  	92.3009
2333.49  	92.2549
2336.36  	92.1122
2339.24  	92.1034
2342.11  	92.2898
2344.98  	92.0369
2347.86  	92.2128
2350.73  	92.0857
2353.61  	92.0494
2356.48  	91.8792
2359.35  	91.9431
2362.23  	91.9192
2365.1  	91.9222
2367.97  	91.8907
2370.85  	91.7916
2373.72  	91.7425
2376.6  	91.7451
2379.47  	91.7028
2382.34  	91.7166
2385.22  	91.6837
2388.09  	91.6879
2390.96  	91.6488
2393.84  	91.6217
2396.71  	91.5973
2399.59  	91.5186
2402.46  	91.5877
2405.33  	91.5656
2408.21  	91.5215
2411.08  	91.5564
2413.95  	91.4838
2416.83  	91.5215
2419.7  	91.606
2422.58  	91.583
2425.45  	91.6355
2428.32  	91.6756
2431.2  	91.6614
2434.07  	91.7569
2436.94  	91.7493
2439.82  	91.8031
2442.69  	91.7601
2445.57  	91.704
2448.44  	91.7099
2451.31  	91.6725
2454.19  	91.6387
2457.06  	91.5621
2459.93  	91.5904
2462.81  	91.4693
2465.68  	91.4861
2468.56  	91.424
2471.43  	91.4352
2474.3  	91.3906
2477.18  	91.402
2480.05  	91.3739
2482.93  	91.3929
2485.8  	91.2768
2488.67  	91.3335
2491.55  	91.3308
2494.42  	91.2602
2497.29  	91.2185
2500.17  	91.2228
2503.04  	91.2098
2505.92  	91.1192
2508.79  	91.0395
2511.66  	91.0521
2514.54  	90.9785
2517.41  	90.9102
2520.28  	90.9189
2523.16  	90.9763
2526.03  	90.933
2528.91  	90.9073
2531.78  	90.9755
2534.65  	91.0168
2537.53  	91.0319
2540.4  	91.03
2543.27  	91.0228
2546.15  	91.0239
2549.02  	91.0638
2551.9  	91.004
2554.77  	91.0008
2557.64  	90.946
2560.52  	90.9205
2563.39  	90.8019
2566.26  	90.6969
2569.14  	90.6723
2572.01  	90.6665
2574.89  	90.5756
2577.76  	90.5037
2580.63  	90.4802
2583.51  	90.5636
2586.38  	90.5244
2589.25  	90.5385
2592.13  	90.532
2595  	90.4688
2597.88  	90.4277
2600.75  	90.4081
2603.62  	90.4182
2606.5  	90.447
2609.37  	90.4261
2612.24  	90.4184
2615.12  	90.3499
2617.99  	90.3429
2620.87  	90.326
2623.74  	90.3609
2626.61  	90.3706
2629.49  	90.3378
2632.36  	90.2552
2635.23  	90.2442
2638.11  	90.1466
2640.98  	90.0337
2643.86  	89.9385
2646.73  	89.7644
2649.6  	89.6242
2652.48  	89.4923
2655.35  	89.3684
2658.22  	89.3155
2661.1  	89.3093
2663.97  	89.3941
2666.85  	89.6152
2669.72  	89.7582
2672.59  	89.8354
2675.47  	89.9263
2678.34  	89.9395
2681.21  	89.9631
2684.09  	89.9093
2686.96  	89.8038
2689.84  	89.7159
2692.71  	89.5806
2695.58  	89.4916
2698.46  	89.418
2701.33  	89.3845
2704.2  	89.3404
2707.08  	89.321
2709.95  	89.2669
2712.83  	89.1723
2715.7  	89.1359
2718.57  	89.0883
2721.45  	89.0937
2724.32  	89.0772
2727.19  	89.1171
2730.07  	89.1603
2732.94  	89.2223
2735.82  	89.2258
2738.69  	89.224
2741.56  	89.2525
2744.44  	89.244
2747.31  	89.2379
2750.18  	89.194
2753.06  	89.1534
2755.93  	89.0962
2758.81  	89.0355
2761.68  	88.984
2764.55  	88.9056
2767.43  	88.831
2770.3  	88.7967
2773.17  	88.7631
2776.05  	88.6372
2778.92  	88.5553
2781.8  	88.5212
2784.67  	88.4627
2787.54  	88.376
2790.42  	88.2924
2793.29  	88.2501
2796.16  	88.1591
2799.04  	88.1065
2801.91  	87.9912
2804.79  	87.8397
2807.66  	87.7345
2810.53  	87.6432
2813.41  	87.4557
2816.28  	87.3465
2819.15  	87.2826
2822.03  	87.1529
2824.9  	86.9995
2827.78  	86.8265
2830.65  	86.6743
2833.52  	86.4806
2836.4  	86.2402
2839.27  	85.9708
2842.14  	85.6831
2845.02  	85.3923
2847.89  	84.9562
2850.77  	84.4774
2853.64  	83.9828
2856.51  	83.4137
2859.39  	82.893
2862.26  	82.2786
2865.13  	81.7583
2868.01  	81.2032
2870.88  	80.5968
2873.76  	79.9316
2876.63  	79.3901
2879.5  	78.9454
2882.38  	78.7328
2885.25  	78.8164
2888.12  	79.1592
2891  	79.542
2893.87  	79.9126
2896.75  	80.257
2899.62  	80.525
2902.49  	80.6812
2905.37  	80.7677
2908.24  	80.7398
2911.11  	80.5792
2913.99  	80.2978
2916.86  	80.0224
2919.74  	79.8602
2922.61  	79.7077
2925.48  	79.4456
2928.36  	79.07
2931.23  	78.8339
2934.1  	78.9206
2936.98  	79.2618
2939.85  	79.8083
2942.73  	80.5326
2945.6  	81.1874
2948.47  	81.1839
2951.35  	80.4165
2954.22  	78.7409
2957.09  	75.9863
2959.97  	71.908
2962.84  	66.377
2965.72  	60.3642
2968.59  	56.0787
2971.46  	56.3709
2974.34  	60.8173
2977.21  	66.7583
2980.08  	72.7472
2982.96  	77.944
2985.83  	81.8535
2988.71  	84.4636
2991.58  	86.1183
2994.45  	87.1809
2997.33  	87.917
3000.2  	88.4387
3003.07  	88.7819
3005.95  	88.9696
3008.82  	89.2067
3011.7  	89.2458
3014.57  	89.3666
3017.44  	89.4836
3020.32  	89.5093
3023.19  	89.5165
3026.06  	89.6216
3028.94  	89.6308
3031.81  	89.58
3034.69  	89.5892
3037.56  	89.4924
3040.43  	89.4802
3043.31  	89.4509
3046.18  	89.3033
3049.05  	89.3842
3051.93  	89.2867
3054.8  	89.2274
3057.68  	89.2539
3060.55  	89.1766
3063.42  	89.1128
3066.3  	88.94
3069.17  	88.9188
3072.04  	88.7957
3074.92  	88.7638
3077.79  	88.6905
3080.67  	88.6416
3083.54  	88.4907
3086.41  	88.4571
3089.29  	88.3628
3092.16  	88.2868
3095.04  	88.1649
3097.91  	88.0006
3100.78  	87.8271
3103.66  	87.8001
3106.53  	87.6659
3109.4  	87.531
3112.28  	87.4321
3115.15  	87.3526
3118.03  	87.153
3120.9  	86.9912
3123.77  	86.866
3126.65  	86.7178
3129.52  	86.5885
3132.39  	86.4206
3135.27  	86.3006
3138.14  	86.1566
3141.02  	85.9455
3143.89  	85.7301
3146.76  	85.5529
3149.64  	85.3272
3152.51  	85.1241
3155.38  	84.9599
3158.26  	84.7231
3161.13  	84.5134
3164.01  	84.2289
3166.88  	84.0461
3169.75  	83.7783
3172.63  	83.5216
3175.5  	83.1442
3178.37  	82.9952
3181.25  	82.6891
3184.12  	82.3207
3187  	82.0417
3189.87  	81.7523
3192.74  	81.4364
3195.62  	81.1267
3198.49  	80.8561
3201.36  	80.5849
3204.24  	80.2944
3207.11  	79.871
3209.99  	79.5851
3212.86  	79.1936
3215.73  	78.8826
3218.61  	78.6282
3221.48  	78.3348
3224.35  	77.9978
3227.23  	77.6287
3230.1  	77.2822
3232.98  	76.9193
3235.85  	76.7076
3238.72  	76.4503
3241.6  	76.0433
3244.47  	75.6278
3247.34  	75.3492
3250.22  	75.0454
3253.09  	74.8426
3255.97  	74.5358
3258.84  	74.2514
3261.71  	74.0232
3264.59  	73.8151
3267.46  	73.5707
3270.33  	73.2617
3273.21  	73.1342
3276.08  	72.8509
3278.96  	72.6401
3281.83  	72.4481
3284.7  	72.214
3287.58  	72.1623
3290.45  	71.9048
3293.32  	71.7871
3296.2  	71.6387
3299.07  	71.4182
3301.95  	71.3096
3304.82  	71.241
3307.69  	71.19
3310.57  	71.133
3313.44  	71.033
3316.31  	70.9199
3319.19  	70.9428
3322.06  	70.9051
3324.94  	70.8641
3327.81  	70.8275
3330.68  	70.8678
3333.56  	70.8641
3336.43  	70.8457
3339.3  	70.9686
3342.18  	71.0594
3345.05  	71.0238
3347.93  	71.1442
3350.8  	71.4189
3353.67  	71.6466
3356.55  	71.7062
3359.42  	71.9465
3362.29  	72.1917
3365.17  	72.4097
3368.04  	72.6555
3370.92  	72.9431
3373.79  	73.3289
3376.66  	73.5448
3379.54  	73.8718
3382.41  	74.2652
3385.28  	74.5467
3388.16  	74.9238
3391.03  	75.2271
3393.91  	75.6735
3396.78  	75.7925
3399.65  	76.2882
3402.53  	76.6329
3405.4  	77.076
3408.27  	77.3952
3411.15  	77.7257
3414.02  	78.02
3416.9  	78.3292
3419.77  	78.8209
3422.64  	79.1402
3425.52  	79.4588
3428.39  	79.9006
3431.26  	80.2082
3434.14  	80.5217
3437.01  	80.8825
3439.89  	81.1146
3442.76  	81.4573
3445.63  	81.8587
3448.51  	82.1512
3451.38  	82.5761
3454.25  	82.7496
3457.13  	83.0829
3460  	83.3522
3462.88  	83.6386
3465.75  	84.0399
3468.62  	84.3578
3471.5  	84.5708
3474.37  	84.9856
3477.24  	85.206
3480.12  	85.5107
3482.99  	85.8554
3485.87  	86.0614
3488.74  	86.3334
3491.61  	86.4603
3494.49  	86.845
3497.36  	86.9663
3500.23  	87.1836
3503.11  	87.4655
3505.98  	87.7709
3508.86  	87.8293
3511.73  	88.1925
3514.6  	88.4049
3517.48  	88.4644
3520.35  	88.5706
3523.22  	88.7651
3526.1  	89.0036
3528.97  	89.0765
3531.85  	89.2431
3534.72  	89.5365
3537.59  	89.6604
3540.47  	89.6857
3543.34  	89.8588
3546.21  	90.014
3549.09  	90.307
3551.96  	90.3679
3554.84  	90.3131
3557.71  	90.4674
3560.58  	90.6217
3563.46  	90.8421
3566.33  	90.655
3569.2  	90.807
3572.08  	90.9355
3574.95  	91.0086
3577.83  	91.0482
3580.7  	91.1102
3583.57  	91.1758
3586.45  	91.1744
3589.32  	91.2965
3592.19  	91.4005
3595.07  	91.4334
3597.94  	91.4437
3600.82  	91.5372
3603.69  	91.559
3606.56  	91.4587
3609.44  	91.6199
3612.31  	91.478
3615.18  	91.5465
3618.06  	91.6036
3620.93  	91.7991
3623.81  	91.7376
3626.68  	91.7395
3629.55  	91.723
3632.43  	91.7317
3635.3  	91.7275
3638.17  	91.7808
3641.05  	91.7448
3643.92  	91.7797
3646.8  	91.7611
3649.67  	91.7976
3652.54  	91.9932
3655.42  	91.8261
3658.29  	91.9411
3661.16  	91.9407
3664.04  	92.0268
3666.91  	91.9051
3669.79  	91.9513
3672.66  	92.0035
3675.53  	92.0318
3678.41  	91.8979
3681.28  	92.0134
3684.15  	91.9827
3687.03  	91.9605
3689.9  	91.8987
3692.78  	91.923
3695.65  	92.0908
3698.52  	92.001
3701.4  	91.949
3704.27  	92.0138
3707.15  	92.062
3710.02  	92.0101
3712.89  	92.0118
3715.77  	92.0068
3718.64  	92.0361
3721.51  	92.0559
3724.39  	92.0054
3727.26  	92.0065
3730.14  	91.9643
3733.01  	92.0003
3735.88  	91.9314
3738.76  	91.9786
3741.63  	91.9016
3744.5  	91.9771
3747.38  	91.9076
3750.25  	91.8948
3753.13  	91.9247
3756  	91.9082
3758.87  	91.923
3761.75  	91.9113
3764.62  	91.9191
3767.49  	91.9028
3770.37  	91.849
3773.24  	91.8818
3776.12  	91.8981
3778.99  	91.955
3781.86  	91.8753
3784.74  	91.9062
3787.61  	91.8329
3790.48  	91.8493
3793.36  	91.7871
3796.23  	91.854
3799.11  	91.759
3801.98  	91.8294
3804.85  	91.8862
3807.73  	91.9866
3810.6  	91.8315
3813.47  	91.8057
3816.35  	91.8735
3819.22  	91.7555
3822.1  	91.9164
3824.97  	91.9135
3827.84  	91.8275
3830.72  	91.7559
3833.59  	91.7475
3836.46  	91.7952
3839.34  	91.8356
3842.21  	91.8259
3845.09  	91.7993
3847.96  	91.8625
3850.83  	91.6716
3853.71  	91.7989
3856.58  	91.8488
3859.45  	91.7776
3862.33  	91.8842
3865.2  	91.7466
3868.08  	91.7366
3870.95  	91.6383
3873.82  	91.8264
3876.7  	91.8253
3879.57  	91.8097
3882.44  	91.753
3885.32  	91.7049
3888.19  	91.8043
3891.07  	91.7365
3893.94  	91.686
3896.81  	91.7813
3899.69  	91.6852
3902.56  	91.6469
3905.43  	91.7319
3908.31  	91.761
3911.18  	91.7763
3914.06  	91.814
3916.93  	91.7647
3919.8  	91.7096
3922.68  	91.7257
3925.55  	91.7248
3928.42  	91.7627
3931.3  	91.6991
3934.17  	91.665
3937.05  	91.7482
3939.92  	91.8035
3942.79  	91.6852
3945.67  	91.7716
3948.54  	91.6894
3951.41  	91.7425
3954.29  	91.7655
3957.16  	91.7434
3960.04  	91.7157
3962.91  	91.6953
3965.78  	91.7319
3968.66  	91.7011
3971.53  	91.7215
3974.4  	91.7468
3977.28  	91.6877
3980.15  	91.6927
3983.03  	91.7277
3985.9  	91.7262
3988.77  	91.6436
3991.65  	91.6645
3994.52  	91.6979
3997.39  	91.7249
4000.27  	91.7767