File: FTIR/MoS2_1H_1.txt
##TITLE=No Description
##DATA TYPE=INFRARED SPECTRUM
##XUNITS=1/CM
##YUNITS=%T
399.452  	71.1146
402.326  	71.9683
405.2  	73.0415
408.073  	71.7217
410.947  	68.5138
413.821  	66.1515
416.695  	64.6005
419.568  	64.9477
422.442  	63.2922
425.316  	63.7997
428.19  	65.0792
431.063  	66.3905
433.937  	68.2059
436.811  	69.2886
439.685  	69.8234
442.558  	70.7827
445.432  	70.2103
448.306  	70.5493
451.18  	71.0827
454.053  	70.6624
456.927  	71.4032
459.801  	70.9264
462.675  	71.0003
465.548  	70.0553
468.422  	67.8173
471.296  	70.4913
474.17  	70.0431
477.043  	69.1738
479.917  	67.865
482.791  	65.3061
485.665  	63.5913
488.538  	64.5227
491.412  	66.4188
494.286  	68.0048
497.16  	69.3888
500.034  	70.5393
502.907  	70.732
505.781  	71.1658
508.655  	71.5308
511.529  	71.4768
514.402  	71.7975
517.276  	71.7839
520.15  	71.6006
523.024  	71.7249
525.897  	71.6724
528.771  	71.6294
531.645  	71.5891
534.519  	71.5995
537.392  	71.7954
540.266  	71.6079
543.14  	71.6509
546.014  	71.4315
548.887  	71.2761
551.761  	71.2371
554.635  	71.0881
557.509  	70.5357
560.382  	70.3441
563.256  	70.1513
566.13  	69.872
569.004  	69.5943
571.877  	69.4708
574.751  	69.1127
577.625  	68.9615
580.499  	68.6817
583.372  	68.6508
586.246  	68.4483
589.12  	68.4656
591.994  	68.1728
594.867  	68.1057
597.741  	68.2421
600.615  	67.9789
603.489  	67.9497
606.362  	67.9819
609.236  	67.8071
612.11  	67.8421
614.984  	67.811
617.858  	67.839
620.731  	67.8269
623.605  	67.8065
626.479  	67.7667
629.353  	67.7111
632.226  	67.8429
635.1  	67.8511
637.974  	68.1335
640.848  	68.2734
643.721  	68.4301
646.595  	68.518
649.469  	68.7278
652.343  	68.9919
655.216  	69.2798
658.09  	69.5067
660.964  	69.7689
663.838  	70.1023
666.711  	70.2729
669.585  	70.7466
672.459  	70.963
675.333  	71.3163
678.206  	71.7255
681.08  	72.053
683.954  	72.5239
686.828  	72.8728
689.701  	73.2624
692.575  	73.6287
695.449  	73.9858
698.323  	74.2648
701.196  	74.6884
704.07  	75.0816
706.944  	75.4531
709.818  	75.8144
712.691  	76.1882
715.565  	76.5906
718.439  	76.989
721.313  	77.2587
724.186  	77.6747
727.06  	78.1034
729.934  	78.4748
732.808  	78.8017
735.681  	79.2171
738.555  	79.6708
741.429  	79.9052
744.303  	80.3098
747.177  	80.727
750.05  	80.9869
752.924  	81.3043
755.798  	81.7625
758.672  	82.0569
761.545  	82.3817
764.419  	82.7773
767.293  	82.9855
770.167  	83.3705
773.04  	83.7331
775.914  	83.9619
778.788  	84.1547
781.662  	84.5091
784.535  	84.7526
787.409  	84.9646
790.283  	84.9378
793.157  	85.0351
796.03  	84.9547
798.904  	84.7145
801.778  	84.1004
804.652  	82.6766
807.525  	79.6829
810.399  	72.9283
813.273  	60.7488
816.147  	52.4383
819.02  	60.6915
821.894  	76.0108
824.768  	83.6242
827.642  	86.3209
830.515  	87.5231
833.389  	88.2115
836.263  	88.6061
839.137  	88.8789
842.01  	89.0687
844.884  	89.2421
847.758  	89.4399
850.632  	89.4744
853.505  	89.5667
856.379  	89.6929
859.253  	89.7257
862.127  	89.7358
865.001  	89.6657
867.874  	89.6437
870.748  	89.635
873.622  	89.4627
876.496  	89.4535
879.369  	89.4329
882.243  	89.2801
885.117  	89.0633
887.991  	88.8519
890.864  	88.6272
893.738  	88.3092
896.612  	87.979
899.486  	87.6106
902.359  	87.1702
905.233  	86.6373
908.107  	85.9692
910.981  	85.2012
913.854  	84.1761
916.728  	82.8949
919.602  	81.4451
922.476  	80.1662
925.349  	78.5801
928.223  	76.2284
931.097  	72.8843
933.971  	68.7757
936.844  	64.1438
939.718  	57.7513
942.592  	48.3524
945.466  	37.7569
948.339  	29.4696
951.213  	28.3669
954.087  	37.9239
956.961  	53.857
959.834  	69.7409
962.708  	79.9381
965.582  	84.8197
968.456  	87.1238
971.329  	88.3386
974.203  	89.1747
977.077  	89.5963
979.951  	89.9013
982.824  	90.2033
985.698  	90.5639
988.572  	90.8279
991.446  	91.0147
994.32  	91.0931
997.193  	91.0739
1000.07  	91.0369
1002.94  	90.9431
1005.81  	90.8683
1008.69  	90.6972
1011.56  	90.5416
1014.44  	90.4167
1017.31  	90.2409
1020.18  	90.0407
1023.06  	89.829
1025.93  	89.6209
1028.8  	89.4241
1031.68  	89.1824
1034.55  	88.9827
1037.43  	88.6875
1040.3  	88.3216
1043.17  	87.9932
1046.05  	87.5649
1048.92  	87.2212
1051.79  	86.7999
1054.67  	86.3326
1057.54  	85.7798
1060.42  	85.1188
1063.29  	84.3491
1066.16  	83.5118
1069.04  	82.5909
1071.91  	81.5031
1074.78  	80.2344
1077.66  	78.7185
1080.53  	76.9628
1083.41  	74.8112
1086.28  	72.2229
1089.15  	69.1433
1092.03  	65.727
1094.9  	62.2232
1097.77  	58.6523
1100.65  	55.6175
1103.52  	53.6761
1106.4  	53.0418
1109.27  	53.4384
1112.14  	54.5293
1115.02  	55.8826
1117.89  	56.4581
1120.76  	54.7361
1123.64  	50.7726
1126.51  	47.6525
1129.39  	48.4295
1132.26  	53.0997
1135.13  	59.7146
1138.01  	65.1769
1140.88  	68.1005
1143.75  	68.7931
1146.63  	67.9008
1149.5  	65.8222
1152.38  	62.673
1155.25  	59.1101
1158.12  	56.4474
1161  	56.4193
1163.87  	60.2186
1166.74  	67.5848
1169.62  	75.7709
1172.49  	81.8465
1175.37  	85.372
1178.24  	87.2244
1181.11  	88.0491
1183.99  	88.3522
1186.86  	88.4218
1189.73  	88.5747
1192.61  	88.8664
1195.48  	89.1313
1198.36  	89.2483
1201.23  	89.2921
1204.1  	89.2546
1206.98  	89.1585
1209.85  	89.0349
1212.72  	88.9062
1215.6  	88.7501
1218.47  	88.5631
1221.35  	88.4101
1224.22  	88.2435
1227.09  	88.0671
1229.97  	87.922
1232.84  	87.7707
1235.72  	87.6624
1238.59  	87.4314
1241.46  	87.1743
1244.34  	86.8562
1247.21  	86.5357
1250.08  	86.1572
1252.96  	85.8118
1255.83  	85.4705
1258.71  	85.0794
1261.58  	84.6344
1264.45  	84.1107
1267.33  	83.4797
1270.2  	82.701
1273.07  	81.8079
1275.95  	80.7757
1278.82  	79.5745
1281.7  	78.1695
1284.57  	76.7121
1287.44  	75.1488
1290.32  	73.6065
1293.19  	72.2186
1296.06  	71.0551
1298.94  	70.0402
1301.81  	69.368
1304.69  	69.1428
1307.56  	69.3009
1310.43  	69.6895
1313.31  	70.3554
1316.18  	71.3735
1319.05  	72.8538
1321.93  	74.5946
1324.8  	76.297
1327.68  	77.6291
1330.55  	78.1377
1333.42  	77.6407
1336.3  	76.1793
1339.17  	74.4249
1342.04  	74.6423
1344.92  	77.1163
1347.79  	79.0492
1350.67  	79.9854
1353.54  	79.8255
1356.41  	78.071
1359.29  	75.3262
1362.16  	70.778
1365.03  	66.0766
1367.91  	64.7563
1370.78  	66.0268
1373.66  	65.5013
1376.53  	61.8873
1379.4  	60.874
1382.28  	65.8059
1385.15  	72.7569
1388.02  	77.0987
1390.9  	79.3126
1393.77  	79.1782
1396.65  	78.7901
1399.52  	78.2458
1402.39  	77.6358
1405.27  	77.0751
1408.14  	76.7698
1411.01  	76.9949
1413.89  	77.6712
1416.76  	78.3168
1419.64  	79.0637
1422.51  	79.675
1425.38  	80.2152
1428.26  	80.6382
1431.13  	81.1227
1434  	81.5771
1436.88  	82.0118
1439.75  	82.4359
1442.63  	82.6833
1445.5  	82.5258
1448.37  	81.5906
1451.25  	80.1729
1454.12  	78.816
1456.99  	77.9537
1459.87  	76.9531
1462.74  	75.508
1465.62  	74.4199
1468.49  	74.6937
1471.36  	77.1613
1474.24  	80.7452
1477.11  	82.7496
1479.98  	84.1266
1482.86  	85.3234
1485.73  	86.1312
1488.61  	86.7134
1491.48  	87.2306
1494.35  	87.6501
1497.23  	88.0732
1500.1  	88.4527
1502.97  	88.7866
1505.85  	88.8836
1508.72  	89.0573
1511.6  	89.205
1514.47  	89.3033
1517.34  	89.3915
1520.22  	89.4696
1523.09  	89.5861
1525.96  	89.6276
1528.84  	89.7
1531.71  	89.7502
1534.59  	89.7757
1537.46  	89.781
1540.33  	89.7951
1543.21  	89.8639
1546.08  	89.8746
1548.95  	89.8769
1551.83  	89.8755
1554.7  	89.8935
1557.58  	89.8698
1560.45  	89.916
1563.32  	89.9067
1566.2  	89.911
1569.07  	89.883
1571.94  	89.8758
1574.82  	89.8386
1577.69  	89.8703
1580.57  	89.8167
1583.44  	89.7813
1586.31  	89.7717
1589.19  	89.7405
1592.06  	89.7046
1594.93  	89.6916
1597.81  	89.6776
1600.68  	89.6338
1603.56  	89.6323
1606.43  	89.5857
1609.3  	89.5745
1612.18  	89.5577
1615.05  	89.4505
1617.92  	89.426
1620.8  	89.3585
1623.67  	89.3137
1626.55  	89.1968
1629.42  	89.1344
1632.29  	89.0333
1635.17  	88.9849
1638.04  	89.0072
1640.91  	88.9307
1643.79  	88.8734
1646.66  	88.866
1649.54  	88.8611
1652.41  	88.7896
1655.28  	88.8818
1658.16  	88.8265
1661.03  	88.7989
1663.9  	88.8184
1666.78  	88.7774
1669.65  	88.8294
1672.53  	88.9018
1675.4  	88.9034
1678.27  	88.9355
1681.15  	88.9262
1684.02  	88.9161
1686.89  	88.9934
1689.77  	88.9723
1692.64  	88.9575
1695.52  	88.8671
1698.39  	88.8539
1701.26  	88.8347
1704.14  	88.6771
1707.01  	88.5961
1709.88  	88.467
1712.76  	88.4796
1715.63  	88.5743
1718.51  	88.7021
1721.38  	88.7653
1724.25  	88.822
1727.13  	88.8478
1730  	88.8286
1732.87  	88.7785
1735.75  	88.8495
1738.62  	88.7385
1741.5  	88.7503
1744.37  	88.6781
1747.24  	88.6309
1750.12  	88.5844
1752.99  	88.5729
1755.86  	88.4796
1758.74  	88.41
1761.61  	88.2673
1764.49  	88.19
1767.36  	88.1228
1770.23  	88.1941
1773.11  	88.365
1775.98  	88.4781
1778.85  	88.5895
1781.73  	88.7054
1784.6  	88.7471
1787.48  	88.7944
1790.35  	88.7353
1793.22  	88.8407
1796.1  	88.7648
1798.97  	88.7613
1801.84  	88.7912
1804.72  	88.7838
1807.59  	88.8058
1810.47  	88.77
1813.34  	88.8273
1816.21  	88.7994
1819.09  	88.7878
1821.96  	88.7809
1824.83  	88.7796
1827.71  	88.7392
1830.58  	88.7135
1833.46  	88.7349
1836.33  	88.6981
1839.2  	88.6757
1842.08  	88.6549
1844.95  	88.6474
1847.83  	88.6952
1850.7  	88.7318
1853.57  	88.6032
1856.45  	88.5821
1859.32  	88.5882
1862.19  	88.5751
1865.07  	88.6113
1867.94  	88.5819
1870.82  	88.6163
1873.69  	88.5197
1876.56  	88.5471
1879.44  	88.5189
1882.31  	88.5257
1885.18  	88.5416
1888.06  	88.518
1890.93  	88.444
1893.81  	88.4097
1896.68  	88.4468
1899.55  	88.4786
1902.43  	88.3247
1905.3  	88.3357
1908.17  	88.3937
1911.05  	88.4196
1913.92  	88.4589
1916.8  	88.5241
1919.67  	88.4284
1922.54  	88.4255
1925.42  	88.3595
1928.29  	88.3915
1931.16  	88.3996
1934.04  	88.4513
1936.91  	88.4936
1939.79  	88.4581
1942.66  	88.4916
1945.53  	88.5448
1948.41  	88.6035
1951.28  	88.5654
1954.15  	88.3605
1957.03  	88.5425
1959.9  	88.5157
1962.78  	88.8724
1965.65  	88.5326
1968.52  	88.503
1971.4  	88.4833
1974.27  	88.4087
1977.14  	88.3289
1980.02  	88.4291
1982.89  	88.404
1985.77  	88.4476
1988.64  	88.2755
1991.51  	88.3249
1994.39  	88.5359
1997.26  	88.4543
2000.13  	88.6965
2003.01  	88.5422
2005.88  	88.5582
2008.76  	88.8246
2011.63  	88.4969
2014.5  	88.3693
2017.38  	88.5887
2020.25  	88.6445
2023.12  	88.6624
2026  	88.5815
2028.87  	88.5764
2031.75  	88.5626
2034.62  	88.5931
2037.49  	88.5311
2040.37  	88.1603
2043.24  	88.2249
2046.11  	88.2003
2048.99  	88.0623
2051.86  	88.0325
2054.74  	87.9912
2057.61  	87.9053
2060.48  	87.8978
2063.36  	87.8187
2066.23  	87.8696
2069.1  	87.7593
2071.98  	87.7308
2074.85  	87.8388
2077.73  	87.8256
2080.6  	87.7456
2083.47  	87.7902
2086.35  	87.7824
2089.22  	87.7567
2092.09  	87.8246
2094.97  	87.6566
2097.84  	87.7792
2100.72  	87.5834
2103.59  	87.6971
2106.46  	87.6483
2109.34  	87.5266
2112.21  	87.6556
2115.08  	87.5869
2117.96  	87.6478
2120.83  	87.5688
2123.71  	87.7425
2126.58  	87.712
2129.45  	87.6605
2132.33  	88.1719
2135.2  	88.0185
2138.07  	87.941
2140.95  	88.0871
2143.82  	87.8506
2146.7  	87.9861
2149.57  	88.3016
2152.44  	88.0343
2155.32  	87.4933
2158.19  	87.8216
2161.06  	88.0577
2163.94  	87.832
2166.81  	87.9487
2169.69  	87.6212
2172.56  	87.9071
2175.43  	87.7585
2178.31  	87.3182
2181.18  	87.4614
2184.05  	87.4392
2186.93  	87.3854
2189.8  	87.3819
2192.68  	87.3286
2195.55  	87.3911
2198.42  	87.5774
2201.3  	87.844
2204.17  	87.5468
2207.04  	87.3299
2209.92  	87.3843
2212.79  	87.4897
2215.67  	87.5495
2218.54  	87.3449
2221.41  	87.3464
2224.29  	87.4645
2227.16  	87.3903
2230.03  	87.3859
2232.91  	87.4759
2235.78  	87.3909
2238.66  	87.3221
2241.53  	87.3531
2244.4  	87.398
2247.28  	87.2529
2250.15  	87.1911
2253.02  	87.2894
2255.9  	87.1407
2258.77  	87.1374
2261.65  	87.0684
2264.52  	87.0961
2267.39  	87.0034
2270.27  	87.0046
2273.14  	86.9603
2276.01  	86.935
2278.89  	86.918
2281.76  	86.9447
2284.64  	86.9214
2287.51  	86.8988
2290.38  	86.9022
2293.26  	86.8991
2296.13  	86.8692
2299  	86.8618
2301.88  	86.8163
2304.75  	86.8341
2307.63  	86.8458
2310.5  	86.7938
2313.37  	86.749
2316.25  	86.803
2319.12  	86.776
2321.99  	86.8288
2324.87  	86.8231
2327.74  	86.8827
2330.62  	86.8884
2333.49  	87.0143
2336.36  	86.9298
2339.24  	86.9523
2342.11  	86.9403
2344.98  	86.8886
2347.86  	86.9316
2350.73  	86.8689
2353.61  	86.7859
2356.48  	86.704
2359.35  	86.7435
2362.23  	86.6462
2365.1  	86.6239
2367.97  	86.5843
2370.85  	86.5054
2373.72  	86.5102
2376.6  	86.4531
2379.47  	86.5317
2382.34  	86.4535
2385.22  	86.4502
2388.09  	86.4297
2390.96  	86.4208
2393.84  	86.3759
2396.71  	86.3275
2399.59  	86.3781
2402.46  	86.3517
2405.33  	86.2967
2408.21  	86.4208
2411.08  	86.3217
2413.95  	86.3135
2416.83  	86.3422
2419.7  	86.3105
2422.58  	86.3045
2425.45  	86.3699
2428.32  	86.4032
2431.2  	86.4703
2434.07  	86.4109
2436.94  	86.4606
2439.82  	86.4141
2442.69  	86.4737
2445.57  	86.4601
2448.44  	86.3911
2451.31  	86.3657
2454.19  	86.37
2457.06  	86.3501
2459.93  	86.3545
2462.81  	86.2443
2465.68  	86.2306
2468.56  	86.2603
2471.43  	86.155
2474.3  	86.1036
2477.18  	86.116
2480.05  	86.11
2482.93  	86.0949
2485.8  	86.0952
2488.67  	86.0752
2491.55  	86.0918
2494.42  	85.9976
2497.29  	85.9725
2500.17  	85.9998
2503.04  	85.9351
2505.92  	85.8569
2508.79  	85.8325
2511.66  	85.7258
2514.54  	85.7528
2517.41  	85.7386
2520.28  	85.7296
2523.16  	85.746
2526.03  	85.7199
2528.91  	85.7319
2531.78  	85.7625
2534.65  	85.7296
2537.53  	85.7795
2540.4  	85.79
2543.27  	85.7818
2546.15  	85.7508
2549.02  	85.7613
2551.9  	85.7518
2554.77  	85.7511
2557.64  	85.6576
2560.52  	85.6685
2563.39  	85.5495
2566.26  	85.4483
2569.14  	85.451
2572.01  	85.4027
2574.89  	85.3786
2577.76  	85.327
2580.63  	85.3418
2583.51  	85.2897
2586.38  	85.3088
2589.25  	85.2917
2592.13  	85.2833
2595  	85.3491
2597.88  	85.2863
2600.75  	85.2669
2603.62  	85.322
2606.5  	85.2615
2609.37  	85.3279
2612.24  	85.2797
2615.12  	85.2732
2617.99  	85.2613
2620.87  	85.2466
2623.74  	85.311
2626.61  	85.263
2629.49  	85.2985
2632.36  	85.2179
2635.23  	85.1327
2638.11  	85.0355
2640.98  	84.9487
2643.86  	84.831
2646.73  	84.7545
2649.6  	84.6186
2652.48  	84.4838
2655.35  	84.3926
2658.22  	84.3377
2661.1  	84.3833
2663.97  	84.517
2666.85  	84.6793
2669.72  	84.832
2672.59  	84.9388
2675.47  	85.0309
2678.34  	85.017
2681.21  	85.0269
2684.09  	85.0006
2686.96  	84.8607
2689.84  	84.7943
2692.71  	84.711
2695.58  	84.5599
2698.46  	84.4736
2701.33  	84.4537
2704.2  	84.4558
2707.08  	84.3927
2709.95  	84.3372
2712.83  	84.2994
2715.7  	84.277
2718.57  	84.174
2721.45  	84.1934
2724.32  	84.2093
2727.19  	84.2558
2730.07  	84.2559
2732.94  	84.2945
2735.82  	84.3476
2738.69  	84.3394
2741.56  	84.3806
2744.44  	84.3981
2747.31  	84.3573
2750.18  	84.3152
2753.06  	84.2446
2755.93  	84.1969
2758.81  	84.1717
2761.68  	84.0734
2764.55  	84.0557
2767.43  	83.9952
2770.3  	83.9167
2773.17  	83.8615
2776.05  	83.7951
2778.92  	83.7211
2781.8  	83.6861
2784.67  	83.5926
2787.54  	83.5227
2790.42  	83.4621
2793.29  	83.3762
2796.16  	83.3338
2799.04  	83.2345
2801.91  	83.176
2804.79  	82.9922
2807.66  	82.8425
2810.53  	82.7356
2813.41  	82.6065
2816.28  	82.4687
2819.15  	82.4132
2822.03  	82.3044
2824.9  	82.1882
2827.78  	82.0142
2830.65  	81.8326
2833.52  	81.6454
2836.4  	81.4345
2839.27  	81.1973
2842.14  	80.9342
2845.02  	80.5769
2847.89  	80.1885
2850.77  	79.7553
2853.64  	79.288
2856.51  	78.731
2859.39  	78.22
2862.26  	77.6878
2865.13  	77.2011
2868.01  	76.6655
2870.88  	76.1252
2873.76  	75.5389
2876.63  	75.0345
2879.5  	74.655
2882.38  	74.5348
2885.25  	74.6402
2888.12  	75.0056
2891  	75.4199
2893.87  	75.7448
2896.75  	76.0432
2899.62  	76.3337
2902.49  	76.4275
2905.37  	76.5993
2908.24  	76.5327
2911.11  	76.3468
2913.99  	76.0858
2916.86  	75.8152
2919.74  	75.638
2922.61  	75.5235
2925.48  	75.3491
2928.36  	74.9668
2931.23  	74.7854
2934.1  	74.8678
2936.98  	75.2018
2939.85  	75.8076
2942.73  	76.4894
2945.6  	76.9927
2948.47  	76.8424
2951.35  	75.9696
2954.22  	74.3261
2957.09  	71.6293
2959.97  	67.6355
2962.84  	62.543
2965.72  	56.9752
2968.59  	53.2297
2971.46  	53.8289
2974.34  	58.3207
2977.21  	64.1508
2980.08  	69.9996
2982.96  	74.966
2985.83  	78.735
2988.71  	81.1965
2991.58  	82.7252
2994.45  	83.5919
2997.33  	84.261
3000.2  	84.6528
3003.07  	84.8786
3005.95  	85.1267
3008.82  	85.2603
3011.7  	85.3537
3014.57  	85.4154
3017.44  	85.4433
3020.32  	85.5219
3023.19  	85.4896
3026.06  	85.4802
3028.94  	85.4474
3031.81  	85.4348
3034.69  	85.4326
3037.56  	85.3767
3040.43  	85.3418
3043.31  	85.2517
3046.18  	85.2251
3049.05  	85.1673
3051.93  	85.1406
3054.8  	85.0311
3057.68  	84.9937
3060.55  	84.9416
3063.42  	84.8564
3066.3  	84.8199
3069.17  	84.7066
3072.04  	84.648
3074.92  	84.5691
3077.79  	84.5128
3080.67  	84.4164
3083.54  	84.2738
3086.41  	84.1881
3089.29  	84.1205
3092.16  	83.9668
3095.04  	83.8255
3097.91  	83.7577
3100.78  	83.6977
3103.66  	83.5868
3106.53  	83.4438
3109.4  	83.2198
3112.28  	83.2312
3115.15  	83.0409
3118.03  	82.9329
3120.9  	82.6651
3123.77  	82.5577
3126.65  	82.3645
3129.52  	82.2547
3132.39  	82.0198
3135.27  	81.9952
3138.14  	81.8033
3141.02  	81.6329
3143.89  	81.4139
3146.76  	81.2592
3149.64  	81.074
3152.51  	80.8074
3155.38  	80.6173
3158.26  	80.422
3161.13  	80.2207
3164.01  	79.9924
3166.88  	79.7509
3169.75  	79.4695
3172.63  	79.318
3175.5  	78.886
3178.37  	78.7114
3181.25  	78.4956
3184.12  	78.1718
3187  	77.842
3189.87  	77.645
3192.74  	77.3582
3195.62  	76.9809
3198.49  	76.6607
3201.36  	76.3958
3204.24  	76.0664
3207.11  	75.9274
3209.99  	75.6002
3212.86  	75.2147
3215.73  	74.9025
3218.61  	74.557
3221.48  	74.1843
3224.35  	73.9482
3227.23  	73.6079
3230.1  	73.2158
3232.98  	72.8828
3235.85  	72.6865
3238.72  	72.44
3241.6  	72.0984
3244.47  	71.6644
3247.34  	71.489
3250.22  	71.3295
3253.09  	70.9966
3255.97  	70.6877
3258.84  	70.5134
3261.71  	70.3342
3264.59  	70.0994
3267.46  	69.9317
3270.33  	69.6004
3273.21  	69.5255
3276.08  	69.2342
3278.96  	69.0687
3281.83  	68.9709
3284.7  	68.8401
3287.58  	68.6016
3290.45  	68.5511
3293.32  	68.3542
3296.2  	68.3223
3299.07  	68.2358
3301.95  	68.0818
3304.82  	67.9218
3307.69  	67.911
3310.57  	67.8507
3313.44  	67.8749
3316.31  	67.7515
3319.19  	67.7551
3322.06  	67.7577
3324.94  	67.7345
3327.81  	67.6879
3330.68  	67.7364
3333.56  	67.6996
3336.43  	67.8624
3339.3  	67.9018
3342.18  	68.0896
3345.05  	68.1133
3347.93  	68.1982
3350.8  	68.4564
3353.67  	68.7281
3356.55  	68.7388
3359.42  	69.0602
3362.29  	69.2369
3365.17  	69.6059
3368.04  	69.7705
3370.92  	70.0556
3373.79  	70.279
3376.66  	70.6079
3379.54  	70.9161
3382.41  	71.3154
3385.28  	71.6645
3388.16  	72.0589
3391.03  	72.3497
3393.91  	72.5883
3396.78  	72.9424
3399.65  	73.3757
3402.53  	73.6737
3405.4  	74.104
3408.27  	74.4649
3411.15  	74.7836
3414.02  	75.1878
3416.9  	75.4835
3419.77  	75.8003
3422.64  	76.2277
3425.52  	76.559
3428.39  	76.8287
3431.26  	77.1161
3434.14  	77.4022
3437.01  	77.8675
3439.89  	78.1842
3442.76  	78.5267
3445.63  	78.9156
3448.51  	79.3222
3451.38  	79.491
3454.25  	79.7201
3457.13  	79.8956
3460  	80.3871
3462.88  	80.6984
3465.75  	80.9641
3468.62  	81.1589
3471.5  	81.4514
3474.37  	81.9167
3477.24  	82.1641
3480.12  	82.4509
3482.99  	82.7251
3485.87  	82.9403
3488.74  	83.2135
3491.61  	83.5244
3494.49  	83.5722
3497.36  	83.8816
3500.23  	84.009
3503.11  	84.2133
3505.98  	84.4322
3508.86  	84.733
3511.73  	84.8024
3514.6  	85.0695
3517.48  	85.2822
3520.35  	85.4266
3523.22  	85.6215
3526.1  	85.7887
3528.97  	86.0918
3531.85  	86.2051
3534.72  	86.2525
3537.59  	86.3057
3540.47  	86.5534
3543.34  	86.6579
3546.21  	86.6925
3549.09  	86.9055
3551.96  	87.0746
3554.84  	87.1284
3557.71  	87.1467
3560.58  	87.2822
3563.46  	87.3806
3566.33  	87.378
3569.2  	87.5511
3572.08  	87.5739
3574.95  	87.6155
3577.83  	87.7338
3580.7  	87.8467
3583.57  	87.9046
3586.45  	87.9635
3589.32  	88.0383
3592.19  	88.1137
3595.07  	88.0974
3597.94  	88.1088
3600.82  	88.167
3603.69  	88.2741
3606.56  	88.3002
3609.44  	88.4076
3612.31  	88.3631
3615.18  	88.24
3618.06  	88.3309
3620.93  	88.335
3623.81  	88.4471
3626.68  	88.3923
3629.55  	88.5646
3632.43  	88.4911
3635.3  	88.4973
3638.17  	88.5361
3641.05  	88.7292
3643.92  	88.548
3646.8  	88.5217
3649.67  	88.6814
3652.54  	88.7694
3655.42  	88.6575
3658.29  	88.76
3661.16  	88.768
3664.04  	88.7154
3666.91  	88.7136
3669.79  	88.7108
3672.66  	88.7022
3675.53  	88.7207
3678.41  	88.7273
3681.28  	88.728
3684.15  	88.7292
3687.03  	88.6446
3689.9  	88.6822
3692.78  	88.7945
3695.65  	88.724
3698.52  	88.7517
3701.4  	88.7906
3704.27  	88.8112
3707.15  	88.7966
3710.02  	88.7628
3712.89  	88.7495
3715.77  	88.7669
3718.64  	88.7525
3721.51  	88.7794
3724.39  	88.8026
3727.26  	88.794
3730.14  	88.8056
3733.01  	88.8244
3735.88  	88.6586
3738.76  	88.7643
3741.63  	88.7758
3744.5  	88.8998
3747.38  	88.7472
3750.25  	88.8203
3753.13  	88.796
3756  	88.7163
3758.87  	88.721
3761.75  	88.7308
3764.62  	88.6973
3767.49  	88.8114
3770.37  	88.8239
3773.24  	88.6994
3776.12  	88.7391
3778.99  	88.7346
3781.86  	88.7773
3784.74  	88.7804
3787.61  	88.7448
3790.48  	88.777
3793.36  	88.7419
3796.23  	88.6888
3799.11  	88.7163
3801.98  	88.7578
3804.85  	88.7409
3807.73  	88.8577
3810.6  	88.772
3813.47  	88.7667
3816.35  	88.8928
3819.22  	88.62
3822.1  	88.8812
3824.97  	88.7698
3827.84  	88.6964
3830.72  	88.7234
3833.59  	88.7206
3836.46  	88.6374
3839.34  	88.6857
3842.21  	88.9017
3845.09  	88.7876
3847.96  	88.816
3850.83  	88.6729
3853.71  	88.7641
3856.58  	88.72
3859.45  	88.7584
3862.33  	88.7352
3865.2  	88.6488
3868.08  	88.6565
3870.95  	88.9123
3873.82  	88.6912
3876.7  	88.7038
3879.57  	88.6829
3882.44  	88.6894
3885.32  	88.8094
3888.19  	88.7706
3891.07  	88.8289
3893.94  	88.7825
3896.81  	88.752
3899.69  	88.6513
3902.56  	88.6547
3905.43  	88.7117
3908.31  	88.7529
3911.18  	88.6968
3914.06  	88.7403
3916.93  	88.7911
3919.8  	88.7723
3922.68  	88.7252
3925.55  	88.7384
3928.42  	88.7512
3931.3  	88.8345
3934.17  	88.7152
3937.05  	88.7891
3939.92  	88.7563
3942.79  	88.7488
3945.67  	88.7393
3948.54  	88.7527
3951.41  	88.7809
3954.29  	88.7629
3957.16  	88.7307
3960.04  	88.7087
3962.91  	88.7625
3965.78  	88.7699
3968.66  	88.8156
3971.53  	88.8525
3974.4  	88.7742
3977.28  	88.7788
3980.15  	88.7909
3983.03  	88.7505
3985.9  	88.799
3988.77  	88.7493
3991.65  	88.6744
3994.52  	88.734
3997.39  	88.7388
4000.27  	88.7545