File: FTIR/Silica+PDA_Seco_1.txt
##TITLE=No Description
##DATA TYPE=INFRARED SPECTRUM
##XUNITS=1/CM
##YUNITS=%T
399.452  	48.811
402.326  	47.2937
405.2  	45.3265
408.073  	43.4118
410.947  	41.7335
413.821  	43.1278
416.695  	40.5046
419.568  	37.344
422.442  	37.2932
425.316  	36.7278
428.19  	35.0278
431.063  	34.6107
433.937  	33.4947
436.811  	32.7257
439.685  	31.6391
442.558  	30.0105
445.432  	30.4961
448.306  	30.3566
451.18  	30.7154
454.053  	30.1912
456.927  	30.8855
459.801  	31.6991
462.675  	33.1524
465.548  	34.749
468.422  	35.9977
471.296  	39.3769
474.17  	42.5784
477.043  	45.5582
479.917  	49.5095
482.791  	54.0379
485.665  	57.605
488.538  	61.4261
491.412  	64.012
494.286  	66.5494
497.16  	69.1607
500.034  	70.3685
502.907  	72.1219
505.781  	73.575
508.655  	74.5413
511.529  	75.5518
514.402  	76.0381
517.276  	76.9948
520.15  	77.1858
523.024  	77.5122
525.897  	77.5827
528.771  	77.7074
531.645  	77.7324
534.519  	77.8588
537.392  	77.6319
540.266  	77.7124
543.14  	77.6333
546.014  	77.4798
548.887  	77.6765
551.761  	77.7553
554.635  	77.7179
557.509  	77.7248
560.382  	78.1001
563.256  	78.1203
566.13  	78.1717
569.004  	78.3669
571.877  	78.5335
574.751  	79.0573
577.625  	79.2603
580.499  	79.349
583.372  	79.7883
586.246  	80.0406
589.12  	80.45
591.994  	80.5533
594.867  	80.964
597.741  	81.2164
600.615  	81.3997
603.489  	81.4851
606.362  	81.9337
609.236  	82.2503
612.11  	82.4971
614.984  	82.6446
617.858  	82.9796
620.731  	83.234
623.605  	83.3717
626.479  	83.5489
629.353  	83.7583
632.226  	83.9217
635.1  	83.9981
637.974  	84.0292
640.848  	84.2292
643.721  	84.384
646.595  	84.6001
649.469  	84.7624
652.343  	84.9658
655.216  	85.0766
658.09  	85.1434
660.964  	85.257
663.838  	85.361
666.711  	85.3368
669.585  	85.5329
672.459  	85.5596
675.333  	85.676
678.206  	85.7121
681.08  	85.7082
683.954  	85.7757
686.828  	85.7693
689.701  	85.8674
692.575  	85.8746
695.449  	85.8556
698.323  	85.9475
701.196  	85.8392
704.07  	85.8562
706.944  	85.8446
709.818  	85.8044
712.691  	85.8547
715.565  	85.7509
718.439  	85.7611
721.313  	85.7473
724.186  	85.6324
727.06  	85.5462
729.934  	85.502
732.808  	85.4553
735.681  	85.332
738.555  	85.3263
741.429  	85.1438
744.303  	85.099
747.177  	84.9434
750.05  	84.8246
752.924  	84.6891
755.798  	84.5906
758.672  	84.4533
761.545  	84.2319
764.419  	84.0254
767.293  	83.6486
770.167  	82.8166
773.04  	81.7745
775.914  	80.4432
778.788  	78.9667
781.662  	77.5605
784.535  	76.3862
787.409  	75.4736
790.283  	74.8031
793.157  	74.2991
796.03  	73.9699
798.904  	73.8956
801.778  	73.8913
804.652  	74.1613
807.525  	74.4642
810.399  	74.9812
813.273  	75.6168
816.147  	76.3251
819.02  	77.0221
821.894  	77.9259
824.768  	78.8587
827.642  	79.85
830.515  	80.9061
833.389  	81.822
836.263  	82.905
839.137  	83.9541
842.01  	85.0234
844.884  	85.9937
847.758  	86.8565
850.632  	87.5639
853.505  	88.198
856.379  	88.7398
859.253  	89.0693
862.127  	89.2692
865.001  	89.3546
867.874  	89.409
870.748  	89.3511
873.622  	89.1847
876.496  	88.9547
879.369  	88.8152
882.243  	88.47
885.117  	88.1723
887.991  	87.8308
890.864  	87.3652
893.738  	86.8135
896.612  	86.2625
899.486  	85.7587
902.359  	85.2455
905.233  	84.678
908.107  	84.1598
910.981  	83.6355
913.854  	83.0827
916.728  	82.3631
919.602  	81.7619
922.476  	81.1386
925.349  	80.4535
928.223  	79.717
931.097  	79.0681
933.971  	78.4552
936.844  	77.9128
939.718  	77.3399
942.592  	76.9007
945.466  	76.5811
948.339  	76.2691
951.213  	76.0638
954.087  	75.8908
956.961  	75.9698
959.834  	76.0836
962.708  	76.2743
965.582  	76.5171
968.456  	77.023
971.329  	77.4489
974.203  	77.9639
977.077  	78.507
979.951  	79.0469
982.824  	79.3216
985.698  	79.2789
988.572  	78.8991
991.446  	78.1269
994.32  	76.8751
997.193  	75.1351
1000.07  	72.9392
1002.94  	70.3983
1005.81  	67.3357
1008.69  	63.8133
1011.56  	60.223
1014.44  	56.4072
1017.31  	52.5061
1020.18  	48.6592
1023.06  	45.2413
1025.93  	42.0891
1028.8  	39.2359
1031.68  	36.7595
1034.55  	34.7458
1037.43  	33.0815
1040.3  	31.5255
1043.17  	30.311
1046.05  	29.3879
1048.92  	28.6643
1051.79  	27.9446
1054.67  	27.4547
1057.54  	27.2096
1060.42  	27.0755
1063.29  	26.8449
1066.16  	26.7747
1069.04  	27.0333
1071.91  	27.2882
1074.78  	27.4895
1077.66  	27.9094
1080.53  	28.6288
1083.41  	29.3614
1086.28  	30.1132
1089.15  	31.2221
1092.03  	32.6633
1094.9  	34.2628
1097.77  	36.1609
1100.65  	38.512
1103.52  	41.3174
1106.4  	44.3632
1109.27  	47.4951
1112.14  	50.757
1115.02  	53.6505
1117.89  	55.9654
1120.76  	57.7276
1123.64  	59.0896
1126.51  	60.2788
1129.39  	61.1009
1132.26  	61.7882
1135.13  	62.4575
1138.01  	63.0681
1140.88  	63.5509
1143.75  	64.0229
1146.63  	64.5262
1149.5  	65.0019
1152.38  	65.4379
1155.25  	65.8505
1158.12  	66.3294
1161  	66.8178
1163.87  	67.2848
1166.74  	67.7302
1169.62  	68.3072
1172.49  	68.8343
1175.37  	69.3692
1178.24  	69.8668
1181.11  	70.4401
1183.99  	71.0698
1186.86  	71.5945
1189.73  	72.1586
1192.61  	72.779
1195.48  	73.3569
1198.36  	73.916
1201.23  	74.4942
1204.1  	75.1478
1206.98  	75.806
1209.85  	76.3892
1212.72  	77.0789
1215.6  	77.7689
1218.47  	78.4811
1221.35  	79.1738
1224.22  	79.9582
1227.09  	80.8043
1229.97  	81.6143
1232.84  	82.5196
1235.72  	83.4516
1238.59  	84.4491
1241.46  	85.4586
1244.34  	86.5165
1247.21  	87.611
1250.08  	88.7344
1252.96  	89.7731
1255.83  	90.7486
1258.71  	91.6296
1261.58  	92.3543
1264.45  	92.9769
1267.33  	93.4247
1270.2  	93.8485
1273.07  	94.1653
1275.95  	94.4969
1278.82  	94.7394
1281.7  	94.9068
1284.57  	95.0973
1287.44  	95.2348
1290.32  	95.3712
1293.19  	95.5235
1296.06  	95.633
1298.94  	95.7364
1301.81  	95.8295
1304.69  	95.8985
1307.56  	95.9751
1310.43  	96.046
1313.31  	96.0882
1316.18  	96.156
1319.05  	96.2085
1321.93  	96.2758
1324.8  	96.3198
1327.68  	96.3711
1330.55  	96.42
1333.42  	96.4493
1336.3  	96.4566
1339.17  	96.4351
1342.04  	96.5318
1344.92  	96.5895
1347.79  	96.6525
1350.67  	96.6576
1353.54  	96.6425
1356.41  	96.6853
1359.29  	96.7232
1362.16  	96.6892
1365.03  	96.7068
1367.91  	96.7344
1370.78  	96.7735
1373.66  	96.7621
1376.53  	96.7714
1379.4  	96.7682
1382.28  	96.8233
1385.15  	96.8538
1388.02  	96.8404
1390.9  	96.8682
1393.77  	96.8711
1396.65  	96.8369
1399.52  	96.8664
1402.39  	96.9184
1405.27  	96.9117
1408.14  	96.9584
1411.01  	96.9439
1413.89  	96.9492
1416.76  	96.9118
1419.64  	96.8951
1422.51  	96.9439
1425.38  	96.9342
1428.26  	96.9742
1431.13  	96.9511
1434  	96.9192
1436.88  	96.9476
1439.75  	96.9593
1442.63  	96.9886
1445.5  	96.963
1448.37  	96.9521
1451.25  	96.9856
1454.12  	96.964
1456.99  	96.9554
1459.87  	96.9621
1462.74  	96.9903
1465.62  	96.9682
1468.49  	97.0018
1471.36  	97.0231
1474.24  	96.9621
1477.11  	96.9457
1479.98  	97.0137
1482.86  	97.0011
1485.73  	96.9976
1488.61  	96.9935
1491.48  	96.9927
1494.35  	97.0633
1497.23  	97.0627
1500.1  	97.0349
1502.97  	97.0425
1505.85  	97.1181
1508.72  	96.9274
1511.6  	96.9924
1514.47  	96.9972
1517.34  	97.0088
1520.22  	97.0427
1523.09  	97.0243
1525.96  	97.0438
1528.84  	97.061
1531.71  	97.0597
1534.59  	97.0355
1537.46  	97.0912
1540.33  	97.1891
1543.21  	97.0464
1546.08  	97.0288
1548.95  	97.0271
1551.83  	97.0245
1554.7  	97.0423
1557.58  	97.0806
1560.45  	97.0257
1563.32  	96.9577
1566.2  	96.928
1569.07  	96.9247
1571.94  	96.8766
1574.82  	96.8926
1577.69  	96.851
1580.57  	96.7976
1583.44  	96.7503
1586.31  	96.7114
1589.19  	96.6881
1592.06  	96.6191
1594.93  	96.5556
1597.81  	96.5197
1600.68  	96.4768
1603.56  	96.2989
1606.43  	96.1746
1609.3  	96.0491
1612.18  	95.9834
1615.05  	95.9091
1617.92  	95.8584
1620.8  	95.7551
1623.67  	95.7166
1626.55  	95.6782
1629.42  	95.6286
1632.29  	95.7014
1635.17  	95.8598
1638.04  	95.8203
1640.91  	95.906
1643.79  	96.0009
1646.66  	96.1704
1649.54  	96.212
1652.41  	96.4512
1655.28  	96.4162
1658.16  	96.542
1661.03  	96.6331
1663.9  	96.7195
1666.78  	96.8645
1669.65  	96.9682
1672.53  	97.0514
1675.4  	97.2077
1678.27  	97.2398
1681.15  	97.3139
1684.02  	97.4574
1686.89  	97.4943
1689.77  	97.5345
1692.64  	97.6515
1695.52  	97.7946
1698.39  	97.7299
1701.26  	97.7961
1704.14  	97.8231
1707.01  	97.8785
1709.88  	97.8991
1712.76  	97.9361
1715.63  	97.9833
1718.51  	98.043
1721.38  	98.083
1724.25  	98.1558
1727.13  	98.2211
1730  	98.2024
1732.87  	98.2624
1735.75  	98.2701
1738.62  	98.3138
1741.5  	98.3164
1744.37  	98.313
1747.24  	98.3594
1750.12  	98.3254
1752.99  	98.3578
1755.86  	98.4479
1758.74  	98.4193
1761.61  	98.4475
1764.49  	98.4662
1767.36  	98.4689
1770.23  	98.4797
1773.11  	98.5475
1775.98  	98.5079
1778.85  	98.5249
1781.73  	98.5289
1784.6  	98.5173
1787.48  	98.5342
1790.35  	98.5419
1793.22  	98.5291
1796.1  	98.4981
1798.97  	98.5295
1801.84  	98.4614
1804.72  	98.5602
1807.59  	98.5694
1810.47  	98.6059
1813.34  	98.6504
1816.21  	98.6925
1819.09  	98.6218
1821.96  	98.6382
1824.83  	98.6368
1827.71  	98.6195
1830.58  	98.6104
1833.46  	98.6348
1836.33  	98.5492
1839.2  	98.5569
1842.08  	98.5578
1844.95  	98.5626
1847.83  	98.4963
1850.7  	98.4937
1853.57  	98.5916
1856.45  	98.5688
1859.32  	98.5393
1862.19  	98.5364
1865.07  	98.5187
1867.94  	98.4663
1870.82  	98.4411
1873.69  	98.5739
1876.56  	98.4993
1879.44  	98.534
1882.31  	98.5876
1885.18  	98.5678
1888.06  	98.577
1890.93  	98.6202
1893.81  	98.7533
1896.68  	98.6953
1899.55  	98.749
1902.43  	98.6678
1905.3  	98.8212
1908.17  	98.8575
1911.05  	98.7368
1913.92  	98.9103
1916.8  	98.9299
1919.67  	98.8062
1922.54  	98.9151
1925.42  	98.8622
1928.29  	98.8847
1931.16  	98.922
1934.04  	98.9361
1936.91  	98.9643
1939.79  	98.8624
1942.66  	98.8894
1945.53  	98.747
1948.41  	98.9328
1951.28  	99.1549
1954.15  	99.0046
1957.03  	98.8415
1959.9  	99.1096
1962.78  	99.2496
1965.65  	99.0564
1968.52  	98.8814
1971.4  	99.1034
1974.27  	99.1259
1977.14  	98.8453
1980.02  	98.5861
1982.89  	99.0086
1985.77  	98.7514
1988.64  	98.6589
1991.51  	98.6877
1994.39  	98.5751
1997.26  	98.8738
2000.13  	98.8802
2003.01  	99.1836
2005.88  	99.0349
2008.76  	98.9994
2011.63  	99.1574
2014.5  	99.0517
2017.38  	99.0718
2020.25  	99.1172
2023.12  	99.2076
2026  	98.8382
2028.87  	99.0671
2031.75  	99.1756
2034.62  	98.9791
2037.49  	99.1805
2040.37  	99.4292
2043.24  	99.3925
2046.11  	99.3042
2048.99  	99.3323
2051.86  	99.2138
2054.74  	99.1255
2057.61  	99.0801
2060.48  	99.3792
2063.36  	99.0908
2066.23  	99.2333
2069.1  	99.3031
2071.98  	99.2689
2074.85  	98.9398
2077.73  	99.0201
2080.6  	99.0274
2083.47  	99.1118
2086.35  	99.0362
2089.22  	99.0502
2092.09  	99.1089
2094.97  	99.2771
2097.84  	99.1441
2100.72  	99.0943
2103.59  	98.9257
2106.46  	99.0766
2109.34  	99.0511
2112.21  	99.0919
2115.08  	99.2003
2117.96  	99.2603
2120.83  	99.0894
2123.71  	99.1872
2126.58  	99.2164
2129.45  	99.2798
2132.33  	99.5215
2135.2  	99.7197
2138.07  	99.4815
2140.95  	99.493
2143.82  	99.5788
2146.7  	99.6992
2149.57  	99.673
2152.44  	99.8949
2155.32  	100.047
2158.19  	99.8471
2161.06  	99.1678
2163.94  	99.4118
2166.81  	98.8819
2169.69  	99.1688
2172.56  	99.4529
2175.43  	98.895
2178.31  	99.1646
2181.18  	99.0113
2184.05  	98.9716
2186.93  	99.055
2189.8  	98.8892
2192.68  	98.7496
2195.55  	98.8361
2198.42  	98.771
2201.3  	98.8616
2204.17  	98.8428
2207.04  	98.7624
2209.92  	98.8594
2212.79  	98.7864
2215.67  	98.8409
2218.54  	98.775
2221.41  	98.4746
2224.29  	98.6787
2227.16  	98.5008
2230.03  	98.6005
2232.91  	98.4827
2235.78  	98.6377
2238.66  	98.4929
2241.53  	98.4795
2244.4  	98.7805
2247.28  	98.8604
2250.15  	98.874
2253.02  	98.7718
2255.9  	98.8026
2258.77  	98.6555
2261.65  	98.5773
2264.52  	98.5817
2267.39  	98.6049
2270.27  	98.5987
2273.14  	98.481
2276.01  	98.5155
2278.89  	98.495
2281.76  	98.4783
2284.64  	98.4291
2287.51  	98.563
2290.38  	98.5353
2293.26  	98.5446
2296.13  	98.5637
2299  	98.585
2301.88  	98.6602
2304.75  	98.6345
2307.63  	98.684
2310.5  	98.6856
2313.37  	98.7016
2316.25  	98.717
2319.12  	98.7373
2321.99  	98.7454
2324.87  	98.7914
2327.74  	99.0044
2330.62  	99.0624
2333.49  	98.9527
2336.36  	99.1211
2339.24  	99.1185
2342.11  	99.0481
2344.98  	98.9561
2347.86  	98.9751
2350.73  	98.9789
2353.61  	99.0263
2356.48  	98.9444
2359.35  	98.9491
2362.23  	98.8591
2365.1  	98.7515
2367.97  	98.7865
2370.85  	98.6935
2373.72  	98.6239
2376.6  	98.6778
2379.47  	98.6936
2382.34  	98.7385
2385.22  	98.7705
2388.09  	98.8675
2390.96  	98.8391
2393.84  	98.7988
2396.71  	98.8868
2399.59  	98.9384
2402.46  	98.9965
2405.33  	98.9701
2408.21  	98.8989
2411.08  	98.881
2413.95  	98.975
2416.83  	98.9517
2419.7  	98.9764
2422.58  	98.9266
2425.45  	98.8863
2428.32  	98.9981
2431.2  	98.8624
2434.07  	98.8679
2436.94  	98.859
2439.82  	98.8643
2442.69  	98.8458
2445.57  	98.82
2448.44  	98.8336
2451.31  	98.854
2454.19  	98.7856
2457.06  	98.8815
2459.93  	98.8812
2462.81  	98.9054
2465.68  	98.8826
2468.56  	98.854
2471.43  	98.8605
2474.3  	98.8405
2477.18  	98.9132
2480.05  	98.9195
2482.93  	98.9324
2485.8  	98.8616
2488.67  	98.9362
2491.55  	98.9407
2494.42  	98.8886
2497.29  	98.8639
2500.17  	98.9078
2503.04  	98.9215
2505.92  	98.9252
2508.79  	98.8211
2511.66  	98.857
2514.54  	98.7472
2517.41  	98.8278
2520.28  	98.8275
2523.16  	98.8538
2526.03  	98.8797
2528.91  	98.8435
2531.78  	98.8399
2534.65  	98.8722
2537.53  	98.8417
2540.4  	98.8735
2543.27  	98.8
2546.15  	98.8431
2549.02  	98.7908
2551.9  	98.7826
2554.77  	98.7469
2557.64  	98.775
2560.52  	98.797
2563.39  	98.7359
2566.26  	98.7505
2569.14  	98.7848
2572.01  	98.7552
2574.89  	98.6886
2577.76  	98.7525
2580.63  	98.7335
2583.51  	98.6656
2586.38  	98.729
2589.25  	98.7345
2592.13  	98.6862
2595  	98.7156
2597.88  	98.7614
2600.75  	98.6489
2603.62  	98.631
2606.5  	98.6804
2609.37  	98.7055
2612.24  	98.6704
2615.12  	98.6705
2617.99  	98.5979
2620.87  	98.6693
2623.74  	98.6782
2626.61  	98.6722
2629.49  	98.6314
2632.36  	98.6423
2635.23  	98.5512
2638.11  	98.5928
2640.98  	98.5901
2643.86  	98.603
2646.73  	98.6041
2649.6  	98.6127
2652.48  	98.6347
2655.35  	98.5893
2658.22  	98.6233
2661.1  	98.6602
2663.97  	98.6826
2666.85  	98.6908
2669.72  	98.7035
2672.59  	98.7246
2675.47  	98.7015
2678.34  	98.7186
2681.21  	98.661
2684.09  	98.6809
2686.96  	98.6747
2689.84  	98.6812
2692.71  	98.7179
2695.58  	98.6937
2698.46  	98.6829
2701.33  	98.6578
2704.2  	98.6651
2707.08  	98.6703
2709.95  	98.6929
2712.83  	98.6656
2715.7  	98.6656
2718.57  	98.6626
2721.45  	98.6451
2724.32  	98.6308
2727.19  	98.6251
2730.07  	98.6206
2732.94  	98.6667
2735.82  	98.5951
2738.69  	98.6277
2741.56  	98.611
2744.44  	98.5763
2747.31  	98.6207
2750.18  	98.6355
2753.06  	98.615
2755.93  	98.5963
2758.81  	98.6108
2761.68  	98.5765
2764.55  	98.5565
2767.43  	98.5726
2770.3  	98.5504
2773.17  	98.5121
2776.05  	98.5745
2778.92  	98.5533
2781.8  	98.5173
2784.67  	98.5142
2787.54  	98.4792
2790.42  	98.474
2793.29  	98.4938
2796.16  	98.4528
2799.04  	98.5001
2801.91  	98.4615
2804.79  	98.4331
2807.66  	98.4462
2810.53  	98.3975
2813.41  	98.446
2816.28  	98.4793
2819.15  	98.4314
2822.03  	98.4422
2824.9  	98.3673
2827.78  	98.3513
2830.65  	98.3844
2833.52  	98.339
2836.4  	98.3187
2839.27  	98.3397
2842.14  	98.4047
2845.02  	98.3993
2847.89  	98.4083
2850.77  	98.3968
2853.64  	98.3082
2856.51  	98.3504
2859.39  	98.2657
2862.26  	98.2498
2865.13  	98.1488
2868.01  	98.2608
2870.88  	98.1875
2873.76  	98.1369
2876.63  	98.1833
2879.5  	98.1548
2882.38  	98.0921
2885.25  	98.1429
2888.12  	98.119
2891  	98.0976
2893.87  	98.147
2896.75  	98.15
2899.62  	98.144
2902.49  	98.1278
2905.37  	98.0809
2908.24  	98.0451
2911.11  	98.1146
2913.99  	98.0732
2916.86  	98.1217
2919.74  	98.0999
2922.61  	98.0983
2925.48  	98.0234
2928.36  	98.0366
2931.23  	97.9488
2934.1  	97.8688
2936.98  	97.9238
2939.85  	97.8535
2942.73  	97.8396
2945.6  	97.838
2948.47  	97.8052
2951.35  	97.8113
2954.22  	97.813
2957.09  	97.7521
2959.97  	97.7027
2962.84  	97.6598
2965.72  	97.6172
2968.59  	97.6106
2971.46  	97.5826
2974.34  	97.5523
2977.21  	97.5216
2980.08  	97.4823
2982.96  	97.4867
2985.83  	97.4961
2988.71  	97.4899
2991.58  	97.452
2994.45  	97.4646
2997.33  	97.4779
3000.2  	97.4059
3003.07  	97.4297
3005.95  	97.4178
3008.82  	97.405
3011.7  	97.3445
3014.57  	97.3828
3017.44  	97.3213
3020.32  	97.3214
3023.19  	97.2581
3026.06  	97.3084
3028.94  	97.3052
3031.81  	97.2318
3034.69  	97.2241
3037.56  	97.2323
3040.43  	97.1553
3043.31  	97.1821
3046.18  	97.142
3049.05  	97.0676
3051.93  	97.0907
3054.8  	97.0748
3057.68  	97.1075
3060.55  	97.0649
3063.42  	97.0092
3066.3  	97.0394
3069.17  	96.994
3072.04  	96.9968
3074.92  	96.9814
3077.79  	96.9128
3080.67  	96.8484
3083.54  	96.772
3086.41  	96.7718
3089.29  	96.8332
3092.16  	96.8053
3095.04  	96.7242
3097.91  	96.7294
3100.78  	96.6371
3103.66  	96.7113
3106.53  	96.6279
3109.4  	96.638
3112.28  	96.5918
3115.15  	96.6377
3118.03  	96.5683
3120.9  	96.5741
3123.77  	96.5758
3126.65  	96.5365
3129.52  	96.4779
3132.39  	96.5571
3135.27  	96.4133
3138.14  	96.436
3141.02  	96.3966
3143.89  	96.3556
3146.76  	96.3151
3149.64  	96.3987
3152.51  	96.3041
3155.38  	96.3349
3158.26  	96.2033
3161.13  	96.2446
3164.01  	96.3286
3166.88  	96.241
3169.75  	96.1654
3172.63  	96.1745
3175.5  	96.1411
3178.37  	96.1739
3181.25  	96.0997
3184.12  	96.0437
3187  	96.0641
3189.87  	96.0614
3192.74  	95.9814
3195.62  	95.9595
3198.49  	95.8928
3201.36  	95.9466
3204.24  	95.9409
3207.11  	95.9533
3209.99  	95.9008
3212.86  	95.8939
3215.73  	95.8092
3218.61  	95.8019
3221.48  	95.7807
3224.35  	95.8169
3227.23  	95.7688
3230.1  	95.7193
3232.98  	95.7708
3235.85  	95.6255
3238.72  	95.6815
3241.6  	95.6798
3244.47  	95.6886
3247.34  	95.7284
3250.22  	95.6953
3253.09  	95.58
3255.97  	95.5318
3258.84  	95.6269
3261.71  	95.652
3264.59  	95.5134
3267.46  	95.5318
3270.33  	95.5497
3273.21  	95.4234
3276.08  	95.6602
3278.96  	95.5594
3281.83  	95.5711
3284.7  	95.5557
3287.58  	95.4765
3290.45  	95.6728
3293.32  	95.5267
3296.2  	95.5886
3299.07  	95.5657
3301.95  	95.4627
3304.82  	95.4547
3307.69  	95.5733
3310.57  	95.4016
3313.44  	95.4498
3316.31  	95.3522
3319.19  	95.4622
3322.06  	95.455
3324.94  	95.3565
3327.81  	95.4349
3330.68  	95.4538
3333.56  	95.4938
3336.43  	95.4153
3339.3  	95.4711
3342.18  	95.4721
3345.05  	95.4083
3347.93  	95.4216
3350.8  	95.4662
3353.67  	95.3868
3356.55  	95.3786
3359.42  	95.3511
3362.29  	95.3568
3365.17  	95.3524
3368.04  	95.3953
3370.92  	95.2891
3373.79  	95.3491
3376.66  	95.3271
3379.54  	95.4357
3382.41  	95.3555
3385.28  	95.4331
3388.16  	95.4931
3391.03  	95.3432
3393.91  	95.4617
3396.78  	95.4655
3399.65  	95.4914
3402.53  	95.3989
3405.4  	95.5174
3408.27  	95.4551
3411.15  	95.4191
3414.02  	95.4381
3416.9  	95.6113
3419.77  	95.4241
3422.64  	95.4525
3425.52  	95.4885
3428.39  	95.4949
3431.26  	95.5854
3434.14  	95.5935
3437.01  	95.5598
3439.89  	95.648
3442.76  	95.678
3445.63  	95.6243
3448.51  	95.6485
3451.38  	95.709
3454.25  	95.7662
3457.13  	95.6485
3460  	95.6717
3462.88  	95.8737
3465.75  	95.7102
3468.62  	95.9262
3471.5  	96.0279
3474.37  	96.0273
3477.24  	95.9681
3480.12  	95.9013
3482.99  	95.9099
3485.87  	96.0278
3488.74  	95.9412
3491.61  	96.0543
3494.49  	96.0447
3497.36  	96.1691
3500.23  	96.129
3503.11  	96.0607
3505.98  	96.2266
3508.86  	96.3745
3511.73  	96.1841
3514.6  	96.4498
3517.48  	96.3105
3520.35  	96.4685
3523.22  	96.374
3526.1  	96.4223
3528.97  	96.5684
3531.85  	96.7687
3534.72  	96.6676
3537.59  	96.6329
3540.47  	96.6621
3543.34  	96.6506
3546.21  	96.6261
3549.09  	96.6903
3551.96  	96.7916
3554.84  	96.9118
3557.71  	96.9397
3560.58  	97.0472
3563.46  	96.9296
3566.33  	96.751
3569.2  	96.812
3572.08  	97.0107
3574.95  	97.0561
3577.83  	97.1599
3580.7  	97.0938
3583.57  	97.1604
3586.45  	97.0734
3589.32  	97.0363
3592.19  	97.251
3595.07  	97.2978
3597.94  	97.1726
3600.82  	97.1964
3603.69  	97.3738
3606.56  	97.2173
3609.44  	97.2987
3612.31  	97.3052
3615.18  	97.3058
3618.06  	97.3326
3620.93  	97.374
3623.81  	97.4572
3626.68  	97.4424
3629.55  	97.3233
3632.43  	97.3319
3635.3  	97.4324
3638.17  	97.4539
3641.05  	97.5378
3643.92  	97.5859
3646.8  	97.5397
3649.67  	97.5461
3652.54  	97.5873
3655.42  	97.7678
3658.29  	97.7855
3661.16  	98.0185
3664.04  	97.9981
3666.91  	98.0628
3669.79  	98.0575
3672.66  	98.0563
3675.53  	98.2151
3678.41  	98.1147
3681.28  	98.2611
3684.15  	98.4212
3687.03  	98.5427
3689.9  	98.4412
3692.78  	98.4413
3695.65  	98.5803
3698.52  	98.6844
3701.4  	98.6635
3704.27  	98.5952
3707.15  	98.7056
3710.02  	98.761
3712.89  	98.6751
3715.77  	98.7293
3718.64  	98.7981
3721.51  	98.8513
3724.39  	98.8334
3727.26  	98.7303
3730.14  	98.9261
3733.01  	98.9782
3735.88  	98.8174
3738.76  	98.7911
3741.63  	98.8181
3744.5  	98.9383
3747.38  	98.7451
3750.25  	98.8205
3753.13  	98.7512
3756  	98.8731
3758.87  	98.822
3761.75  	98.7685
3764.62  	98.9265
3767.49  	98.8394
3770.37  	98.8795
3773.24  	98.8562
3776.12  	98.9583
3778.99  	99.0465
3781.86  	99.0237
3784.74  	99.0714
3787.61  	99.0449
3790.48  	99.1743
3793.36  	99.1852
3796.23  	99.1027
3799.11  	99.0535
3801.98  	99.1729
3804.85  	99.0431
3807.73  	99.1762
3810.6  	98.977
3813.47  	99.0722
3816.35  	99.1118
3819.22  	98.9925
3822.1  	98.8716
3824.97  	99.033
3827.84  	99.0144
3830.72  	99.0517
3833.59  	99.1545
3836.46  	99.1088
3839.34  	98.9821
3842.21  	98.9475
3845.09  	99.0254
3847.96  	99.0627
3850.83  	99.2317
3853.71  	99.1806
3856.58  	98.9302
3859.45  	99.0329
3862.33  	99.0322
3865.2  	99.1204
3868.08  	98.9554
3870.95  	98.8185
3873.82  	99.0283
3876.7  	99.1217
3879.57  	99.0528
3882.44  	98.9592
3885.32  	99.0616
3888.19  	98.9878
3891.07  	99.0882
3893.94  	99.0219
3896.81  	99.1417
3899.69  	99.0612
3902.56  	98.8666
3905.43  	98.9063
3908.31  	99.0029
3911.18  	99.1246
3914.06  	99.0616
3916.93  	98.9862
3919.8  	98.9435
3922.68  	99.0657
3925.55  	98.9975
3928.42  	99.1347
3931.3  	99.0663
3934.17  	98.9699
3937.05  	99.1588
3939.92  	99.1209
3942.79  	99.0133
3945.67  	99.1257
3948.54  	99.0128
3951.41  	98.993
3954.29  	99.0313
3957.16  	99.0866
3960.04  	99.1164
3962.91  	99.0736
3965.78  	99.083
3968.66  	99.1581
3971.53  	99.1291
3974.4  	99.0572
3977.28  	99.0957
3980.15  	99.0983
3983.03  	99.1618
3985.9  	99.1955
3988.77  	99.1728
3991.65  	99.0581
3994.52  	99.1419
3997.39  	99.2079
4000.27  	99.1919