File: FTIR/Silica+PDA_1.txt
##TITLE=No Description
##DATA TYPE=INFRARED SPECTRUM
##XUNITS=1/CM
##YUNITS=%T
399.452  	19.8021
402.326  	19.5414
405.2  	19.125
408.073  	18.2576
410.947  	18.7617
413.821  	18.1243
416.695  	18.1264
419.568  	17.6298
422.442  	17.987
425.316  	17.844
428.19  	17.2175
431.063  	17.4691
433.937  	17.1185
436.811  	18.292
439.685  	17.1121
442.558  	17.3728
445.432  	18.2128
448.306  	17.4811
451.18  	18.5529
454.053  	18.5014
456.927  	19.0544
459.801  	20.2824
462.675  	20.796
465.548  	22.4034
468.422  	24.1357
471.296  	25.7269
474.17  	28.0519
477.043  	29.8629
479.917  	31.9218
482.791  	34.2959
485.665  	35.1795
488.538  	36.1741
491.412  	36.5785
494.286  	36.7457
497.16  	37.1208
500.034  	37.3704
502.907  	37.0716
505.781  	36.983
508.655  	36.6268
511.529  	36.2973
514.402  	36.2813
517.276  	35.9238
520.15  	35.8015
523.024  	35.6492
525.897  	35.3492
528.771  	35.3464
531.645  	35.2718
534.519  	35.1993
537.392  	35.1204
540.266  	35.0696
543.14  	35.1267
546.014  	35.0382
548.887  	35.3605
551.761  	35.4448
554.635  	35.4738
557.509  	35.747
560.382  	35.7736
563.256  	35.9922
566.13  	36.1575
569.004  	36.3531
571.877  	36.474
574.751  	36.6141
577.625  	36.8663
580.499  	36.9359
583.372  	37.1758
586.246  	37.4032
589.12  	37.498
591.994  	37.629
594.867  	37.9707
597.741  	38.2448
600.615  	38.3485
603.489  	38.5461
606.362  	38.7413
609.236  	38.9675
612.11  	39.1491
614.984  	39.357
617.858  	39.5368
620.731  	39.7663
623.605  	39.9119
626.479  	40.0114
629.353  	40.09
632.226  	40.1853
635.1  	40.3481
637.974  	40.5023
640.848  	40.7057
643.721  	41.0084
646.595  	41.203
649.469  	41.3935
652.343  	41.5628
655.216  	41.8547
658.09  	42.1104
660.964  	42.3958
663.838  	42.6396
666.711  	42.7562
669.585  	43.1054
672.459  	43.3573
675.333  	43.5984
678.206  	43.9228
681.08  	44.1979
683.954  	44.4668
686.828  	44.771
689.701  	45.0753
692.575  	45.2929
695.449  	45.5567
698.323  	45.9184
701.196  	46.1912
704.07  	46.5279
706.944  	46.765
709.818  	47.1938
712.691  	47.5009
715.565  	47.8323
718.439  	48.1544
721.313  	48.498
724.186  	48.8265
727.06  	49.1612
729.934  	49.4135
732.808  	49.8708
735.681  	50.2522
738.555  	50.594
741.429  	50.9543
744.303  	51.2613
747.177  	51.6459
750.05  	51.9744
752.924  	52.3204
755.798  	52.7389
758.672  	53.0677
761.545  	53.4634
764.419  	53.7438
767.293  	54.0298
770.167  	54.2195
773.04  	54.3814
775.914  	54.5691
778.788  	54.795
781.662  	55.0031
784.535  	55.3233
787.409  	55.7603
790.283  	56.2181
793.157  	56.7435
796.03  	57.2161
798.904  	57.8417
801.778  	58.4782
804.652  	59.1601
807.525  	59.869
810.399  	60.5753
813.273  	61.2919
816.147  	62.0054
819.02  	62.7501
821.894  	63.4682
824.768  	64.221
827.642  	64.9603
830.515  	65.6769
833.389  	66.299
836.263  	67.0301
839.137  	67.6021
842.01  	68.1188
844.884  	68.6395
847.758  	69.187
850.632  	69.6329
853.505  	70.0339
856.379  	70.4906
859.253  	70.9024
862.127  	71.2528
865.001  	71.5567
867.874  	72.0141
870.748  	72.4198
873.622  	72.7427
876.496  	73.0439
879.369  	73.376
882.243  	73.735
885.117  	73.9833
887.991  	74.191
890.864  	74.4356
893.738  	74.6699
896.612  	74.7856
899.486  	74.9262
902.359  	75.0495
905.233  	75.1931
908.107  	75.2982
910.981  	75.3721
913.854  	75.3686
916.728  	75.4257
919.602  	75.4163
922.476  	75.3492
925.349  	75.3473
928.223  	75.256
931.097  	75.1856
933.971  	75.1257
936.844  	75.0622
939.718  	75.0785
942.592  	75.0877
945.466  	75.1012
948.339  	75.1744
951.213  	75.2589
954.087  	75.4208
956.961  	75.6817
959.834  	75.9609
962.708  	76.2607
965.582  	76.6637
968.456  	77.1666
971.329  	77.7561
974.203  	78.2758
977.077  	78.8853
979.951  	79.5052
982.824  	80.0419
985.698  	80.5769
988.572  	80.9935
991.446  	81.3172
994.32  	81.4128
997.193  	81.3999
1000.07  	81.1968
1002.94  	80.9397
1005.81  	80.5231
1008.69  	79.9799
1011.56  	79.3562
1014.44  	78.5323
1017.31  	77.4997
1020.18  	76.2665
1023.06  	74.8429
1025.93  	73.1992
1028.8  	71.3191
1031.68  	69.2147
1034.55  	66.9216
1037.43  	64.5585
1040.3  	61.9954
1043.17  	59.365
1046.05  	56.8158
1048.92  	54.2582
1051.79  	51.7186
1054.67  	49.249
1057.54  	46.9879
1060.42  	44.8474
1063.29  	42.7096
1066.16  	40.7952
1069.04  	39.0336
1071.91  	37.361
1074.78  	35.6628
1077.66  	34.1534
1080.53  	32.9201
1083.41  	31.7849
1086.28  	30.6794
1089.15  	29.9287
1092.03  	29.7019
1094.9  	29.8508
1097.77  	30.579
1100.65  	32.4368
1103.52  	35.5771
1106.4  	39.5604
1109.27  	44.0129
1112.14  	48.3177
1115.02  	51.8604
1117.89  	54.5674
1120.76  	56.5992
1123.64  	58.1735
1126.51  	59.4408
1129.39  	60.3524
1132.26  	61.1385
1135.13  	61.8001
1138.01  	62.4217
1140.88  	62.9333
1143.75  	63.3351
1146.63  	63.7462
1149.5  	64.167
1152.38  	64.5054
1155.25  	64.8351
1158.12  	65.2871
1161  	65.6635
1163.87  	66.0072
1166.74  	66.4464
1169.62  	66.9159
1172.49  	67.3811
1175.37  	67.8486
1178.24  	68.3098
1181.11  	68.8416
1183.99  	69.3824
1186.86  	69.8924
1189.73  	70.414
1192.61  	70.9292
1195.48  	71.4777
1198.36  	71.9946
1201.23  	72.544
1204.1  	73.1115
1206.98  	73.6313
1209.85  	74.2268
1212.72  	74.7865
1215.6  	75.415
1218.47  	76.0386
1221.35  	76.6728
1224.22  	77.4004
1227.09  	78.1504
1229.97  	78.9243
1232.84  	79.7622
1235.72  	80.6311
1238.59  	81.5691
1241.46  	82.5274
1244.34  	83.4975
1247.21  	84.4571
1250.08  	85.3802
1252.96  	86.2221
1255.83  	86.9095
1258.71  	87.4817
1261.58  	87.9243
1264.45  	88.2695
1267.33  	88.5132
1270.2  	88.7474
1273.07  	88.9541
1275.95  	89.0713
1278.82  	89.211
1281.7  	89.2985
1284.57  	89.3807
1287.44  	89.4821
1290.32  	89.5545
1293.19  	89.6335
1296.06  	89.7088
1298.94  	89.7559
1301.81  	89.7926
1304.69  	89.8186
1307.56  	89.845
1310.43  	89.9137
1313.31  	89.9711
1316.18  	89.9788
1319.05  	90.0133
1321.93  	90.0752
1324.8  	90.0987
1327.68  	90.0853
1330.55  	90.093
1333.42  	90.0865
1336.3  	90.081
1339.17  	90.0269
1342.04  	90.0941
1344.92  	90.1157
1347.79  	90.1066
1350.67  	90.1003
1353.54  	90.0919
1356.41  	90.1197
1359.29  	90.1237
1362.16  	90.1016
1365.03  	90.1218
1367.91  	90.1311
1370.78  	90.1487
1373.66  	90.124
1376.53  	90.1271
1379.4  	90.138
1382.28  	90.1601
1385.15  	90.166
1388.02  	90.1484
1390.9  	90.1683
1393.77  	90.1628
1396.65  	90.1299
1399.52  	90.1496
1402.39  	90.1651
1405.27  	90.1401
1408.14  	90.1209
1411.01  	90.1072
1413.89  	90.11
1416.76  	90.0578
1419.64  	90.0365
1422.51  	90.0159
1425.38  	90.0054
1428.26  	89.9557
1431.13  	89.9119
1434  	89.8719
1436.88  	89.8273
1439.75  	89.7725
1442.63  	89.7371
1445.5  	89.7366
1448.37  	89.7076
1451.25  	89.6863
1454.12  	89.6709
1456.99  	89.6511
1459.87  	89.6116
1462.74  	89.5736
1465.62  	89.5601
1468.49  	89.5337
1471.36  	89.4943
1474.24  	89.4701
1477.11  	89.4236
1479.98  	89.3835
1482.86  	89.3749
1485.73  	89.2863
1488.61  	89.1692
1491.48  	89.109
1494.35  	89.0191
1497.23  	88.923
1500.1  	88.8189
1502.97  	88.7306
1505.85  	88.7079
1508.72  	88.5511
1511.6  	88.5064
1514.47  	88.482
1517.34  	88.4149
1520.22  	88.3418
1523.09  	88.3093
1525.96  	88.2365
1528.84  	88.1688
1531.71  	88.0863
1534.59  	88.0126
1537.46  	87.9027
1540.33  	87.804
1543.21  	87.5927
1546.08  	87.4834
1548.95  	87.3295
1551.83  	87.1648
1554.7  	87.022
1557.58  	86.8844
1560.45  	86.7185
1563.32  	86.4277
1566.2  	86.1832
1569.07  	85.9178
1571.94  	85.625
1574.82  	85.2344
1577.69  	84.7896
1580.57  	84.4361
1583.44  	83.9569
1586.31  	83.3924
1589.19  	82.8245
1592.06  	82.2529
1594.93  	81.6511
1597.81  	81.0189
1600.68  	80.3059
1603.56  	79.4889
1606.43  	78.5697
1609.3  	77.6377
1612.18  	76.781
1615.05  	75.8838
1617.92  	75.0524
1620.8  	74.1181
1623.67  	73.5185
1626.55  	72.8448
1629.42  	72.3336
1632.29  	72.0664
1635.17  	72.0208
1638.04  	72.204
1640.91  	72.2379
1643.79  	72.5984
1646.66  	73.1255
1649.54  	73.7548
1652.41  	74.1178
1655.28  	75.2568
1658.16  	75.7967
1661.03  	76.491
1663.9  	77.4563
1666.78  	78.1848
1669.65  	79.1172
1672.53  	79.9538
1675.4  	80.7174
1678.27  	81.6054
1681.15  	82.458
1684.02  	83.2284
1686.89  	84.0829
1689.77  	84.8426
1692.64  	85.6175
1695.52  	86.2559
1698.39  	86.9148
1701.26  	87.6986
1704.14  	88.1722
1707.01  	88.7664
1709.88  	89.3753
1712.76  	89.9029
1715.63  	90.3374
1718.51  	90.7383
1721.38  	91.1341
1724.25  	91.5712
1727.13  	91.9512
1730  	92.1765
1732.87  	92.4666
1735.75  	92.7433
1738.62  	92.9139
1741.5  	93.1448
1744.37  	93.3714
1747.24  	93.6097
1750.12  	93.7949
1752.99  	94.002
1755.86  	94.1643
1758.74  	94.3309
1761.61  	94.456
1764.49  	94.5727
1767.36  	94.731
1770.23  	94.819
1773.11  	94.8684
1775.98  	94.9487
1778.85  	95.0578
1781.73  	95.1347
1784.6  	95.1955
1787.48  	95.2915
1790.35  	95.3321
1793.22  	95.4292
1796.1  	95.4216
1798.97  	95.4996
1801.84  	95.4979
1804.72  	95.5436
1807.59  	95.5984
1810.47  	95.6457
1813.34  	95.7048
1816.21  	95.7339
1819.09  	95.7426
1821.96  	95.7687
1824.83  	95.8123
1827.71  	95.8085
1830.58  	95.8194
1833.46  	95.8781
1836.33  	95.8937
1839.2  	95.8909
1842.08  	95.836
1844.95  	95.8263
1847.83  	95.8454
1850.7  	95.8242
1853.57  	95.9021
1856.45  	95.9177
1859.32  	95.9562
1862.19  	95.9334
1865.07  	95.9225
1867.94  	95.9528
1870.82  	95.9725
1873.69  	96.0436
1876.56  	96.028
1879.44  	96.0588
1882.31  	96.023
1885.18  	96.0068
1888.06  	95.9983
1890.93  	96.0101
1893.81  	96.0634
1896.68  	96.1141
1899.55  	96.0785
1902.43  	96.1218
1905.3  	96.133
1908.17  	96.0977
1911.05  	96.0673
1913.92  	96.1059
1916.8  	96.086
1919.67  	96.1436
1922.54  	96.1912
1925.42  	96.097
1928.29  	96.0916
1931.16  	96.0753
1934.04  	96.0657
1936.91  	96.104
1939.79  	96.161
1942.66  	96.1594
1945.53  	96.0433
1948.41  	96.2735
1951.28  	96.2028
1954.15  	96.0806
1957.03  	96.2265
1959.9  	96.1333
1962.78  	96.2718
1965.65  	96.1651
1968.52  	96.1416
1971.4  	96.1728
1974.27  	96.262
1977.14  	96.2176
1980.02  	96.1233
1982.89  	96.1076
1985.77  	96.0177
1988.64  	96.0938
1991.51  	96.0438
1994.39  	95.8302
1997.26  	95.9107
2000.13  	95.9073
2003.01  	96.4178
2005.88  	96.2333
2008.76  	95.9347
2011.63  	95.9079
2014.5  	95.3812
2017.38  	95.6508
2020.25  	95.7704
2023.12  	95.8201
2026  	95.646
2028.87  	96.0134
2031.75  	96.1871
2034.62  	95.7154
2037.49  	95.5969
2040.37  	95.6942
2043.24  	95.5263
2046.11  	95.7088
2048.99  	95.8076
2051.86  	95.5134
2054.74  	95.2504
2057.61  	95.1871
2060.48  	95.3797
2063.36  	95.4207
2066.23  	95.0642
2069.1  	95.2177
2071.98  	95.2685
2074.85  	95.2568
2077.73  	94.9423
2080.6  	95.1338
2083.47  	95.0622
2086.35  	95.0388
2089.22  	95.0577
2092.09  	95.0254
2094.97  	95.1301
2097.84  	94.9161
2100.72  	94.8116
2103.59  	94.7851
2106.46  	94.8398
2109.34  	94.8067
2112.21  	94.8311
2115.08  	94.9303
2117.96  	94.8724
2120.83  	95.1129
2123.71  	95.0989
2126.58  	94.9616
2129.45  	95.0864
2132.33  	94.8355
2135.2  	95.1734
2138.07  	94.92
2140.95  	95.0889
2143.82  	95.2224
2146.7  	95.3484
2149.57  	95.3119
2152.44  	95.5887
2155.32  	95.5461
2158.19  	95.8664
2161.06  	95.3639
2163.94  	95.5772
2166.81  	95.0306
2169.69  	95.5621
2172.56  	95.4042
2175.43  	96.0309
2178.31  	95.8211
2181.18  	95.6454
2184.05  	95.6329
2186.93  	95.5187
2189.8  	95.7286
2192.68  	95.6409
2195.55  	95.5754
2198.42  	95.4848
2201.3  	95.5619
2204.17  	95.3735
2207.04  	95.7269
2209.92  	95.3194
2212.79  	95.7816
2215.67  	95.8879
2218.54  	95.4252
2221.41  	95.7298
2224.29  	95.6763
2227.16  	95.5188
2230.03  	95.8205
2232.91  	95.6161
2235.78  	95.444
2238.66  	95.7156
2241.53  	95.8973
2244.4  	95.7785
2247.28  	95.8716
2250.15  	95.7793
2253.02  	95.779
2255.9  	95.9069
2258.77  	95.7205
2261.65  	95.863
2264.52  	96.0364
2267.39  	95.9057
2270.27  	95.9458
2273.14  	96.0923
2276.01  	96.0468
2278.89  	95.949
2281.76  	95.9736
2284.64  	96.0483
2287.51  	95.9747
2290.38  	95.9893
2293.26  	96.0933
2296.13  	96.0733
2299  	96.0318
2301.88  	96.0755
2304.75  	96.0851
2307.63  	96.1087
2310.5  	96.0522
2313.37  	96.0472
2316.25  	96.1125
2319.12  	96.1287
2321.99  	96.0548
2324.87  	96.1358
2327.74  	96.3021
2330.62  	96.2865
2333.49  	96.2744
2336.36  	96.4338
2339.24  	96.3514
2342.11  	96.3706
2344.98  	96.4209
2347.86  	96.4178
2350.73  	96.4798
2353.61  	96.5005
2356.48  	96.4885
2359.35  	96.5396
2362.23  	96.5485
2365.1  	96.5646
2367.97  	96.5569
2370.85  	96.6058
2373.72  	96.5741
2376.6  	96.6078
2379.47  	96.624
2382.34  	96.6637
2385.22  	96.7148
2388.09  	96.7289
2390.96  	96.7708
2393.84  	96.7879
2396.71  	96.7764
2399.59  	96.7661
2402.46  	96.7618
2405.33  	96.7865
2408.21  	96.8129
2411.08  	96.7946
2413.95  	96.8186
2416.83  	96.8093
2419.7  	96.8762
2422.58  	96.9192
2425.45  	96.8644
2428.32  	96.8782
2431.2  	96.9348
2434.07  	96.8746
2436.94  	96.8545
2439.82  	96.9173
2442.69  	96.8851
2445.57  	96.9429
2448.44  	97.0006
2451.31  	96.9903
2454.19  	97.0113
2457.06  	97.0379
2459.93  	97.0508
2462.81  	97.0226
2465.68  	96.978
2468.56  	97.0514
2471.43  	97.115
2474.3  	97.1289
2477.18  	97.1292
2480.05  	97.1643
2482.93  	97.1228
2485.8  	97.0527
2488.67  	97.1544
2491.55  	97.1541
2494.42  	97.1245
2497.29  	97.2311
2500.17  	97.2571
2503.04  	97.2484
2505.92  	97.2172
2508.79  	97.2428
2511.66  	97.2535
2514.54  	97.2669
2517.41  	97.2786
2520.28  	97.2894
2523.16  	97.3516
2526.03  	97.3456
2528.91  	97.2735
2531.78  	97.2048
2534.65  	97.27
2537.53  	97.2829
2540.4  	97.2756
2543.27  	97.385
2546.15  	97.3494
2549.02  	97.3526
2551.9  	97.333
2554.77  	97.3652
2557.64  	97.3645
2560.52  	97.3442
2563.39  	97.2723
2566.26  	97.2974
2569.14  	97.3313
2572.01  	97.3278
2574.89  	97.3226
2577.76  	97.3632
2580.63  	97.3074
2583.51  	97.4174
2586.38  	97.3389
2589.25  	97.3538
2592.13  	97.3627
2595  	97.3408
2597.88  	97.3711
2600.75  	97.3563
2603.62  	97.3192
2606.5  	97.3577
2609.37  	97.3288
2612.24  	97.3707
2615.12  	97.3309
2617.99  	97.3571
2620.87  	97.347
2623.74  	97.3537
2626.61  	97.3004
2629.49  	97.308
2632.36  	97.2948
2635.23  	97.2802
2638.11  	97.2964
2640.98  	97.2175
2643.86  	97.2337
2646.73  	97.2019
2649.6  	97.1937
2652.48  	97.1961
2655.35  	97.1735
2658.22  	97.1103
2661.1  	97.1305
2663.97  	97.1208
2666.85  	97.1069
2669.72  	97.0868
2672.59  	97.064
2675.47  	97.0536
2678.34  	97.0387
2681.21  	96.9968
2684.09  	97.0154
2686.96  	96.9606
2689.84  	96.9384
2692.71  	96.9429
2695.58  	96.8862
2698.46  	96.8921
2701.33  	96.8373
2704.2  	96.8214
2707.08  	96.7889
2709.95  	96.7842
2712.83  	96.789
2715.7  	96.7585
2718.57  	96.6681
2721.45  	96.6826
2724.32  	96.6484
2727.19  	96.6298
2730.07  	96.6164
2732.94  	96.623
2735.82  	96.5833
2738.69  	96.567
2741.56  	96.5059
2744.44  	96.4855
2747.31  	96.4265
2750.18  	96.3945
2753.06  	96.3513
2755.93  	96.3382
2758.81  	96.2811
2761.68  	96.2625
2764.55  	96.2189
2767.43  	96.2461
2770.3  	96.1761
2773.17  	96.1066
2776.05  	96.099
2778.92  	96.0245
2781.8  	96.0201
2784.67  	95.9446
2787.54  	95.9289
2790.42  	95.8872
2793.29  	95.8261
2796.16  	95.7812
2799.04  	95.7248
2801.91  	95.662
2804.79  	95.6022
2807.66  	95.5783
2810.53  	95.4922
2813.41  	95.4291
2816.28  	95.3886
2819.15  	95.3271
2822.03  	95.2669
2824.9  	95.2054
2827.78  	95.1558
2830.65  	95.0231
2833.52  	94.9634
2836.4  	94.927
2839.27  	94.8215
2842.14  	94.7594
2845.02  	94.6831
2847.89  	94.5804
2850.77  	94.4579
2853.64  	94.3769
2856.51  	94.3365
2859.39  	94.2182
2862.26  	94.1412
2865.13  	94.067
2868.01  	93.9798
2870.88  	93.8836
2873.76  	93.8146
2876.63  	93.6909
2879.5  	93.5903
2882.38  	93.5346
2885.25  	93.3736
2888.12  	93.314
2891  	93.1627
2893.87  	93.0253
2896.75  	92.9353
2899.62  	92.8048
2902.49  	92.6183
2905.37  	92.5456
2908.24  	92.4139
2911.11  	92.2048
2913.99  	92.1377
2916.86  	91.8996
2919.74  	91.7104
2922.61  	91.6489
2925.48  	91.4698
2928.36  	91.3931
2931.23  	91.1492
2934.1  	91.0466
2936.98  	90.9067
2939.85  	90.6791
2942.73  	90.5981
2945.6  	90.434
2948.47  	90.227
2951.35  	90.0465
2954.22  	89.8837
2957.09  	89.649
2959.97  	89.4337
2962.84  	89.2875
2965.72  	89.1076
2968.59  	88.8908
2971.46  	88.6037
2974.34  	88.4431
2977.21  	88.1469
2980.08  	87.963
2982.96  	87.7254
2985.83  	87.5066
2988.71  	87.267
2991.58  	87.0182
2994.45  	86.7543
2997.33  	86.4855
3000.2  	86.2596
3003.07  	85.957
3005.95  	85.6589
3008.82  	85.3724
3011.7  	85.1103
3014.57  	84.7627
3017.44  	84.4148
3020.32  	84.0847
3023.19  	83.7347
3026.06  	83.4868
3028.94  	83.0784
3031.81  	82.7549
3034.69  	82.3778
3037.56  	82.089
3040.43  	81.7345
3043.31  	81.2881
3046.18  	80.9317
3049.05  	80.4894
3051.93  	80.0832
3054.8  	79.6855
3057.68  	79.2997
3060.55  	78.8851
3063.42  	78.4293
3066.3  	77.9924
3069.17  	77.5974
3072.04  	77.1874
3074.92  	76.7515
3077.79  	76.2429
3080.67  	75.7201
3083.54  	75.3279
3086.41  	74.8636
3089.29  	74.3173
3092.16  	73.7917
3095.04  	73.3057
3097.91  	72.7553
3100.78  	72.2845
3103.66  	71.8006
3106.53  	71.3261
3109.4  	70.7489
3112.28  	70.2113
3115.15  	69.7201
3118.03  	69.1247
3120.9  	68.6019
3123.77  	68.0116
3126.65  	67.5815
3129.52  	67.0146
3132.39  	66.4422
3135.27  	65.8511
3138.14  	65.2971
3141.02  	64.7469
3143.89  	64.1981
3146.76  	63.6255
3149.64  	63.2342
3152.51  	62.6245
3155.38  	62.1377
3158.26  	61.5052
3161.13  	61.0845
3164.01  	60.5223
3166.88  	59.9961
3169.75  	59.5165
3172.63  	58.9915
3175.5  	58.6247
3178.37  	57.9165
3181.25  	57.6343
3184.12  	57.2094
3187  	56.6974
3189.87  	56.1878
3192.74  	55.8118
3195.62  	55.421
3198.49  	54.8844
3201.36  	54.6136
3204.24  	54.232
3207.11  	53.9486
3209.99  	53.6284
3212.86  	53.2906
3215.73  	52.9657
3218.61  	52.8393
3221.48  	52.5027
3224.35  	52.2103
3227.23  	51.9655
3230.1  	51.94
3232.98  	51.6343
3235.85  	51.4083
3238.72  	51.2905
3241.6  	51.1677
3244.47  	51.082
3247.34  	50.83
3250.22  	50.9137
3253.09  	50.8012
3255.97  	50.7065
3258.84  	50.5321
3261.71  	50.5782
3264.59  	50.5424
3267.46  	50.3407
3270.33  	50.3583
3273.21  	50.3783
3276.08  	50.3639
3278.96  	50.242
3281.83  	50.3015
3284.7  	50.2045
3287.58  	50.3238
3290.45  	50.2095
3293.32  	50.2469
3296.2  	50.2075
3299.07  	50.2262
3301.95  	50.1116
3304.82  	50.0301
3307.69  	50.1202
3310.57  	50.1405
3313.44  	50.0405
3316.31  	49.9842
3319.19  	50.0293
3322.06  	50.052
3324.94  	49.9098
3327.81  	49.9075
3330.68  	50.0111
3333.56  	49.9639
3336.43  	49.8789
3339.3  	49.872
3342.18  	49.9064
3345.05  	49.9983
3347.93  	49.9989
3350.8  	50.0276
3353.67  	50.1947
3356.55  	50.0902
3359.42  	50.1044
3362.29  	50.2484
3365.17  	50.4612
3368.04  	50.3408
3370.92  	50.4654
3373.79  	50.7145
3376.66  	50.834
3379.54  	50.9513
3382.41  	51.1396
3385.28  	51.3673
3388.16  	51.5165
3391.03  	51.7035
3393.91  	51.9736
3396.78  	52.2186
3399.65  	52.4432
3402.53  	52.6885
3405.4  	53.0257
3408.27  	53.3728
3411.15  	53.5696
3414.02  	53.8711
3416.9  	54.2868
3419.77  	54.6966
3422.64  	55.0293
3425.52  	55.3122
3428.39  	55.6622
3431.26  	56.0927
3434.14  	56.4903
3437.01  	56.7885
3439.89  	57.3593
3442.76  	57.6582
3445.63  	58.0782
3448.51  	58.3203
3451.38  	58.9429
3454.25  	59.32
3457.13  	59.7442
3460  	60.067
3462.88  	60.6256
3465.75  	61.0796
3468.62  	61.463
3471.5  	61.8657
3474.37  	62.2464
3477.24  	62.8666
3480.12  	63.1585
3482.99  	63.5258
3485.87  	64.0167
3488.74  	64.5341
3491.61  	64.8424
3494.49  	65.1945
3497.36  	65.7577
3500.23  	66.1839
3503.11  	66.5442
3505.98  	67.1553
3508.86  	67.5873
3511.73  	68.0227
3514.6  	68.4386
3517.48  	68.937
3520.35  	69.3752
3523.22  	69.7752
3526.1  	70.1752
3528.97  	70.6622
3531.85  	71.2759
3534.72  	71.701
3537.59  	72.0638
3540.47  	72.6014
3543.34  	73.0624
3546.21  	73.412
3549.09  	74.0095
3551.96  	74.4197
3554.84  	74.807
3557.71  	75.351
3560.58  	75.6396
3563.46  	76.2519
3566.33  	76.5257
3569.2  	77.0131
3572.08  	77.5508
3574.95  	77.9895
3577.83  	78.4148
3580.7  	78.8699
3583.57  	79.2336
3586.45  	79.4987
3589.32  	80.0781
3592.19  	80.5855
3595.07  	80.8767
3597.94  	81.2463
3600.82  	81.6839
3603.69  	82.1379
3606.56  	82.4903
3609.44  	82.791
3612.31  	83.2998
3615.18  	83.6561
3618.06  	84.0831
3620.93  	84.4023
3623.81  	84.9012
3626.68  	85.2246
3629.55  	85.6552
3632.43  	86.1127
3635.3  	86.5196
3638.17  	87.0946
3641.05  	87.4952
3643.92  	87.9491
3646.8  	88.4059
3649.67  	88.8099
3652.54  	89.2701
3655.42  	89.8975
3658.29  	90.5639
3661.16  	91.0039
3664.04  	91.4871
3666.91  	91.9933
3669.79  	92.4134
3672.66  	92.9281
3675.53  	93.4187
3678.41  	93.8065
3681.28  	94.2159
3684.15  	94.599
3687.03  	94.8508
3689.9  	94.937
3692.78  	95.1201
3695.65  	95.4134
3698.52  	95.6846
3701.4  	95.8639
3704.27  	95.868
3707.15  	96.177
3710.02  	96.229
3712.89  	96.1506
3715.77  	96.2812
3718.64  	96.5119
3721.51  	96.7379
3724.39  	96.5865
3727.26  	96.5961
3730.14  	96.8967
3733.01  	96.9304
3735.88  	96.8777
3738.76  	96.9338
3741.63  	97.0472
3744.5  	97.1637
3747.38  	97.0706
3750.25  	97.2168
3753.13  	97.2489
3756  	97.3137
3758.87  	97.428
3761.75  	97.4489
3764.62  	97.5916
3767.49  	97.5915
3770.37  	97.6788
3773.24  	97.6748
3776.12  	97.7266
3778.99  	97.8025
3781.86  	97.8016
3784.74  	97.812
3787.61  	97.7985
3790.48  	97.8174
3793.36  	97.862
3796.23  	97.8874
3799.11  	97.8428
3801.98  	97.8955
3804.85  	97.9061
3807.73  	97.8882
3810.6  	97.8623
3813.47  	97.8354
3816.35  	97.9423
3819.22  	97.9873
3822.1  	97.9318
3824.97  	97.8937
3827.84  	97.8936
3830.72  	97.9035
3833.59  	97.9053
3836.46  	97.9514
3839.34  	97.825
3842.21  	97.847
3845.09  	97.8659
3847.96  	98.0236
3850.83  	98.1129
3853.71  	98.0168
3856.58  	97.7551
3859.45  	97.9224
3862.33  	98.1051
3865.2  	98.0406
3868.08  	97.9447
3870.95  	97.9164
3873.82  	98.0471
3876.7  	97.9139
3879.57  	97.9926
3882.44  	98.0737
3885.32  	98.0131
3888.19  	97.9571
3891.07  	97.9988
3893.94  	97.9909
3896.81  	98.0427
3899.69  	98.0426
3902.56  	97.9944
3905.43  	97.9266
3908.31  	97.9995
3911.18  	98.0548
3914.06  	98.1438
3916.93  	98.073
3919.8  	98.0318
3922.68  	97.9977
3925.55  	98.0191
3928.42  	98.0776
3931.3  	98.0146
3934.17  	98.0424
3937.05  	98.0352
3939.92  	98.0395
3942.79  	97.9776
3945.67  	97.9888
3948.54  	97.9824
3951.41  	98.0465
3954.29  	98.0575
3957.16  	98.0278
3960.04  	98.023
3962.91  	97.9769
3965.78  	98.0301
3968.66  	97.9959
3971.53  	98.0213
3974.4  	98.0802
3977.28  	98.0529
3980.15  	98.0985
3983.03  	98.0478
3985.9  	98.0687
3988.77  	98.0379
3991.65  	98.0419
3994.52  	98.0529
3997.39  	98.0968
4000.27  	98.0943