File: FTIR/Silica_1.txt
##TITLE=No Description
##DATA TYPE=INFRARED SPECTRUM
##XUNITS=1/CM
##YUNITS=%T
399.452  	11.5604
402.326  	10.6025
405.2  	10.4787
408.073  	9.615284
410.947  	9.861807
413.821  	9.506700
416.695  	9.313761
419.568  	11.2449
422.442  	10.4341
425.316  	9.462397
428.19  	10.3289
431.063  	10.5912
433.937  	10.4157
436.811  	10.6853
439.685  	10.4458
442.558  	11.1754
445.432  	13.0336
448.306  	13.0487
451.18  	13.7282
454.053  	15.2176
456.927  	16.2173
459.801  	18.4796
462.675  	19.9875
465.548  	21.52
468.422  	24.5424
471.296  	26.8155
474.17  	30.0558
477.043  	32.6687
479.917  	35.2126
482.791  	37.8918
485.665  	39.7607
488.538  	41.6953
491.412  	42.9002
494.286  	43.9197
497.16  	44.9829
500.034  	45.3203
502.907  	45.5398
505.781  	45.5951
508.655  	45.4434
511.529  	44.826
514.402  	44.4111
517.276  	43.9376
520.15  	43.2401
523.024  	42.6634
525.897  	42.1322
528.771  	41.9682
531.645  	41.3219
534.519  	40.9427
537.392  	40.5947
540.266  	40.4655
543.14  	40.1211
546.014  	39.8795
548.887  	40.1184
551.761  	40.107
554.635  	40.1331
557.509  	40.0072
560.382  	40.1169
563.256  	40.3078
566.13  	40.4828
569.004  	40.6347
571.877  	40.6628
574.751  	40.8498
577.625  	41.2171
580.499  	41.3917
583.372  	41.5019
586.246  	41.7225
589.12  	41.8799
591.994  	41.928
594.867  	42.3207
597.741  	42.4802
600.615  	42.5598
603.489  	42.6932
606.362  	42.8759
609.236  	43.043
612.11  	43.1655
614.984  	43.2175
617.858  	43.3381
620.731  	43.511
623.605  	43.5072
626.479  	43.4674
629.353  	43.2674
632.226  	43.2356
635.1  	43.2309
637.974  	43.3333
640.848  	43.3129
643.721  	43.3508
646.595  	43.4424
649.469  	43.4695
652.343  	43.544
655.216  	43.5125
658.09  	43.5819
660.964  	43.7009
663.838  	43.847
666.711  	43.7734
669.585  	43.952
672.459  	43.9645
675.333  	44.0389
678.206  	44.1868
681.08  	44.2002
683.954  	44.3534
686.828  	44.4592
689.701  	44.5405
692.575  	44.6497
695.449  	44.7216
698.323  	44.9096
701.196  	45.043
704.07  	45.1338
706.944  	45.223
709.818  	45.3747
712.691  	45.5363
715.565  	45.6139
718.439  	45.7659
721.313  	45.8709
724.186  	45.9906
727.06  	46.1504
729.934  	46.2675
732.808  	46.3736
735.681  	46.5273
738.555  	46.5934
741.429  	46.7542
744.303  	46.9275
747.177  	47.0767
750.05  	47.1682
752.924  	47.294
755.798  	47.4164
758.672  	47.4189
761.545  	47.373
764.419  	47.2608
767.293  	46.9867
770.167  	46.4968
773.04  	45.9489
775.914  	45.4949
778.788  	45.3466
781.662  	45.2452
784.535  	45.4289
787.409  	45.7817
790.283  	46.2282
793.157  	46.7422
796.03  	47.475
798.904  	48.2662
801.778  	49.1374
804.652  	50.0375
807.525  	51.0008
810.399  	52.0524
813.273  	53.0501
816.147  	54.149
819.02  	55.2283
821.894  	56.2897
824.768  	57.4182
827.642  	58.4636
830.515  	59.5363
833.389  	60.5303
836.263  	61.4504
839.137  	62.1096
842.01  	62.7061
844.884  	63.2195
847.758  	63.497
850.632  	63.6373
853.505  	63.8756
856.379  	64.0349
859.253  	64.1894
862.127  	64.1881
865.001  	64.3797
867.874  	64.4152
870.748  	64.4711
873.622  	64.4445
876.496  	64.4503
879.369  	64.3424
882.243  	64.2973
885.117  	64.0822
887.991  	63.8644
890.864  	63.6535
893.738  	63.3735
896.612  	62.9453
899.486  	62.5925
902.359  	62.2028
905.233  	61.7497
908.107  	61.2832
910.981  	60.7671
913.854  	60.24
916.728  	59.5496
919.602  	58.8205
922.476  	58.1062
925.349  	57.4058
928.223  	56.5572
931.097  	55.7861
933.971  	55.0872
936.844  	54.4313
939.718  	53.7689
942.592  	53.2834
945.466  	52.8902
948.339  	52.5847
951.213  	52.3577
954.087  	52.3235
956.961  	52.4441
959.834  	52.6671
962.708  	52.9884
965.582  	53.527
968.456  	54.1694
971.329  	54.9407
974.203  	55.7214
977.077  	56.3996
979.951  	56.9857
982.824  	57.1815
985.698  	56.8963
988.572  	56.1246
991.446  	54.8857
994.32  	53.0651
997.193  	50.83
1000.07  	48.2366
1002.94  	45.4803
1005.81  	42.3799
1008.69  	39.0486
1011.56  	35.7469
1014.44  	32.4553
1017.31  	29.092
1020.18  	25.8354
1023.06  	22.9472
1025.93  	20.3952
1028.8  	18.0192
1031.68  	15.9689
1034.55  	14.446
1037.43  	13.2538
1040.3  	12.1625
1043.17  	11.3202
1046.05  	10.8603
1048.92  	10.5666
1051.79  	10.2348
1054.67  	10.0991
1057.54  	10.3024
1060.42  	10.4694
1063.29  	10.5604
1066.16  	10.8968
1069.04  	11.4511
1071.91  	11.9726
1074.78  	12.4782
1077.66  	13.2456
1080.53  	14.3846
1083.41  	15.469
1086.28  	16.7642
1089.15  	18.4138
1092.03  	20.5928
1094.9  	23.1927
1097.77  	26.189
1100.65  	29.8815
1103.52  	33.9584
1106.4  	37.9182
1109.27  	41.4227
1112.14  	44.38
1115.02  	46.6526
1117.89  	48.2424
1120.76  	49.3351
1123.64  	50.2681
1126.51  	50.9962
1129.39  	51.5809
1132.26  	52.0256
1135.13  	52.5262
1138.01  	52.9599
1140.88  	53.376
1143.75  	53.7524
1146.63  	54.183
1149.5  	54.6078
1152.38  	54.9928
1155.25  	55.3956
1158.12  	55.8839
1161  	56.3265
1163.87  	56.8419
1166.74  	57.301
1169.62  	57.8872
1172.49  	58.4724
1175.37  	59.02
1178.24  	59.5637
1181.11  	60.2375
1183.99  	60.8625
1186.86  	61.4406
1189.73  	62.0261
1192.61  	62.6856
1195.48  	63.3507
1198.36  	63.9613
1201.23  	64.6155
1204.1  	65.3498
1206.98  	66.0732
1209.85  	66.7745
1212.72  	67.5657
1215.6  	68.4279
1218.47  	69.3235
1221.35  	70.2035
1224.22  	71.2195
1227.09  	72.3068
1229.97  	73.4562
1232.84  	74.6743
1235.72  	76.0203
1238.59  	77.4233
1241.46  	78.8797
1244.34  	80.3993
1247.21  	82.001
1250.08  	83.5217
1252.96  	84.9143
1255.83  	86.1556
1258.71  	87.1992
1261.58  	88.0541
1264.45  	88.7247
1267.33  	89.2483
1270.2  	89.6577
1273.07  	90.0168
1275.95  	90.3581
1278.82  	90.5743
1281.7  	90.8065
1284.57  	91.01
1287.44  	91.1598
1290.32  	91.3255
1293.19  	91.4487
1296.06  	91.5533
1298.94  	91.6625
1301.81  	91.7429
1304.69  	91.8091
1307.56  	91.8479
1310.43  	91.897
1313.31  	91.9291
1316.18  	91.9785
1319.05  	91.9884
1321.93  	92.0355
1324.8  	92.087
1327.68  	92.1194
1330.55  	92.0921
1333.42  	92.1206
1336.3  	92.1194
1339.17  	92.0622
1342.04  	92.1076
1344.92  	92.1544
1347.79  	92.1564
1350.67  	92.1352
1353.54  	92.1423
1356.41  	92.1275
1359.29  	92.1284
1362.16  	92.0592
1365.03  	92.0572
1367.91  	92.0482
1370.78  	92.0354
1373.66  	91.9612
1376.53  	91.9413
1379.4  	91.9043
1382.28  	91.8949
1385.15  	91.8443
1388.02  	91.7802
1390.9  	91.7962
1393.77  	91.6747
1396.65  	91.5601
1399.52  	91.486
1402.39  	91.4199
1405.27  	91.2597
1408.14  	91.2208
1411.01  	91.0235
1413.89  	90.8543
1416.76  	90.629
1419.64  	90.5716
1422.51  	90.3067
1425.38  	90.1649
1428.26  	90.0421
1431.13  	89.8717
1434  	89.658
1436.88  	89.53
1439.75  	89.4636
1442.63  	89.2952
1445.5  	89.1884
1448.37  	89.1352
1451.25  	89.0865
1454.12  	88.9095
1456.99  	88.8998
1459.87  	89.0532
1462.74  	89.03
1465.62  	88.9474
1468.49  	89.0963
1471.36  	89.2686
1474.24  	89.2242
1477.11  	89.3572
1479.98  	89.6026
1482.86  	89.5687
1485.73  	89.6414
1488.61  	89.7799
1491.48  	89.8992
1494.35  	90.0375
1497.23  	90.1467
1500.1  	90.219
1502.97  	90.2983
1505.85  	90.3783
1508.72  	90.3375
1511.6  	90.4593
1514.47  	90.4752
1517.34  	90.4048
1520.22  	90.492
1523.09  	90.5145
1525.96  	90.4753
1528.84  	90.5358
1531.71  	90.4733
1534.59  	90.3067
1537.46  	90.2345
1540.33  	90.3025
1543.21  	90.1292
1546.08  	89.9653
1548.95  	89.974
1551.83  	89.783
1554.7  	89.6081
1557.58  	89.5826
1560.45  	89.4215
1563.32  	89.237
1566.2  	89.0339
1569.07  	88.8427
1571.94  	88.6127
1574.82  	88.4011
1577.69  	88.1133
1580.57  	87.8648
1583.44  	87.5048
1586.31  	87.0068
1589.19  	86.6239
1592.06  	86.226
1594.93  	85.5792
1597.81  	85.0747
1600.68  	84.4384
1603.56  	83.5943
1606.43  	82.8574
1609.3  	82.0506
1612.18  	81.2621
1615.05  	80.4832
1617.92  	79.8312
1620.8  	79.0177
1623.67  	78.4706
1626.55  	77.9498
1629.42  	77.5532
1632.29  	77.1649
1635.17  	77.2254
1638.04  	77.2617
1640.91  	77.1957
1643.79  	77.2963
1646.66  	77.7415
1649.54  	78.2091
1652.41  	78.3665
1655.28  	79.2377
1658.16  	79.7062
1661.03  	80.1332
1663.9  	80.7328
1666.78  	81.4551
1669.65  	82.1141
1672.53  	82.7328
1675.4  	83.371
1678.27  	84.0168
1681.15  	84.5561
1684.02  	85.2178
1686.89  	85.8764
1689.77  	86.5175
1692.64  	87.0481
1695.52  	87.5037
1698.39  	88.0166
1701.26  	88.5654
1704.14  	88.9795
1707.01  	89.478
1709.88  	89.8979
1712.76  	90.2897
1715.63  	90.6439
1718.51  	90.9623
1721.38  	91.2986
1724.25  	91.6312
1727.13  	91.8808
1730  	92.0153
1732.87  	92.255
1735.75  	92.4778
1738.62  	92.6465
1741.5  	92.7834
1744.37  	92.9133
1747.24  	93.0999
1750.12  	93.1815
1752.99  	93.3744
1755.86  	93.5473
1758.74  	93.6545
1761.61  	93.6661
1764.49  	93.8161
1767.36  	93.9099
1770.23  	94.0027
1773.11  	94.0481
1775.98  	94.1263
1778.85  	94.122
1781.73  	94.2249
1784.6  	94.2537
1787.48  	94.3066
1790.35  	94.3385
1793.22  	94.5126
1796.1  	94.4349
1798.97  	94.4538
1801.84  	94.5077
1804.72  	94.635
1807.59  	94.6115
1810.47  	94.7137
1813.34  	94.7871
1816.21  	94.8131
1819.09  	94.7616
1821.96  	94.765
1824.83  	94.8601
1827.71  	94.7962
1830.58  	94.8161
1833.46  	94.8486
1836.33  	94.8181
1839.2  	94.85
1842.08  	94.8541
1844.95  	94.846
1847.83  	94.8426
1850.7  	94.8443
1853.57  	94.8486
1856.45  	94.8311
1859.32  	94.945
1862.19  	94.8454
1865.07  	94.8208
1867.94  	94.9761
1870.82  	94.8627
1873.69  	94.9865
1876.56  	94.9617
1879.44  	94.9116
1882.31  	95.0739
1885.18  	95.1063
1888.06  	95.1379
1890.93  	95.2379
1893.81  	95.1653
1896.68  	95.3055
1899.55  	95.3536
1902.43  	95.4117
1905.3  	95.4686
1908.17  	95.4222
1911.05  	95.5252
1913.92  	95.6529
1916.8  	95.7713
1919.67  	95.7274
1922.54  	95.8285
1925.42  	95.9778
1928.29  	95.8737
1931.16  	95.7883
1934.04  	95.7973
1936.91  	95.8254
1939.79  	95.9051
1942.66  	95.9819
1945.53  	95.8689
1948.41  	95.9838
1951.28  	96.2662
1954.15  	95.7647
1957.03  	96.2017
1959.9  	96.1928
1962.78  	96.365
1965.65  	96.1078
1968.52  	96.4789
1971.4  	96.3428
1974.27  	96.3407
1977.14  	96.1163
1980.02  	96.0972
1982.89  	95.9406
1985.77  	95.8758
1988.64  	95.6536
1991.51  	95.6892
1994.39  	95.7979
1997.26  	95.4964
2000.13  	95.7191
2003.01  	95.4983
2005.88  	95.8062
2008.76  	95.4817
2011.63  	95.5467
2014.5  	95.3888
2017.38  	95.5844
2020.25  	95.0777
2023.12  	95.4128
2026  	95.6288
2028.87  	95.7202
2031.75  	95.3567
2034.62  	95.3063
2037.49  	95.3207
2040.37  	95.3779
2043.24  	95.2961
2046.11  	94.9148
2048.99  	95.3268
2051.86  	94.7876
2054.74  	95.1718
2057.61  	94.969
2060.48  	94.8892
2063.36  	94.7183
2066.23  	94.8636
2069.1  	94.4835
2071.98  	94.9236
2074.85  	94.5618
2077.73  	94.7178
2080.6  	94.6455
2083.47  	94.7284
2086.35  	94.5016
2089.22  	94.5781
2092.09  	94.58
2094.97  	94.762
2097.84  	94.8448
2100.72  	94.9077
2103.59  	94.7265
2106.46  	94.816
2109.34  	94.8696
2112.21  	94.7746
2115.08  	94.8897
2117.96  	95.0165
2120.83  	94.8294
2123.71  	94.7141
2126.58  	94.9863
2129.45  	94.8432
2132.33  	95.1733
2135.2  	95.0192
2138.07  	95.0469
2140.95  	95.2646
2143.82  	95.1396
2146.7  	95.2721
2149.57  	95.4102
2152.44  	95.667
2155.32  	95.3837
2158.19  	95.5438
2161.06  	95.3598
2163.94  	95.7319
2166.81  	95.4372
2169.69  	94.6049
2172.56  	94.945
2175.43  	95.3249
2178.31  	94.7478
2181.18  	95.1414
2184.05  	95.0647
2186.93  	95.1372
2189.8  	94.6942
2192.68  	94.6997
2195.55  	94.7584
2198.42  	94.6119
2201.3  	94.3924
2204.17  	94.4658
2207.04  	94.6348
2209.92  	94.5452
2212.79  	94.7786
2215.67  	94.6291
2218.54  	94.6524
2221.41  	94.6118
2224.29  	94.4902
2227.16  	94.5728
2230.03  	94.6216
2232.91  	94.3942
2235.78  	94.6983
2238.66  	94.5474
2241.53  	94.5542
2244.4  	94.5123
2247.28  	94.4644
2250.15  	94.3653
2253.02  	94.4496
2255.9  	94.4166
2258.77  	94.5613
2261.65  	94.5831
2264.52  	94.5914
2267.39  	94.6398
2270.27  	94.625
2273.14  	94.793
2276.01  	94.6954
2278.89  	94.7253
2281.76  	94.7321
2284.64  	94.819
2287.51  	94.8536
2290.38  	94.854
2293.26  	94.8693
2296.13  	94.8518
2299  	94.8814
2301.88  	94.9366
2304.75  	94.9739
2307.63  	94.9546
2310.5  	94.9874
2313.37  	94.9615
2316.25  	94.9679
2319.12  	94.9925
2321.99  	94.9624
2324.87  	94.97
2327.74  	95.0826
2330.62  	95.0466
2333.49  	95.0651
2336.36  	95.0864
2339.24  	95.0407
2342.11  	95.112
2344.98  	95.1017
2347.86  	95.1128
2350.73  	95.1277
2353.61  	95.1478
2356.48  	95.1929
2359.35  	95.1607
2362.23  	95.2227
2365.1  	95.2745
2367.97  	95.3013
2370.85  	95.2552
2373.72  	95.4463
2376.6  	95.467
2379.47  	95.5386
2382.34  	95.5702
2385.22  	95.7149
2388.09  	95.7448
2390.96  	95.7483
2393.84  	95.8095
2396.71  	95.7986
2399.59  	95.8301
2402.46  	95.8416
2405.33  	95.7584
2408.21  	95.8564
2411.08  	95.8806
2413.95  	95.9583
2416.83  	95.8933
2419.7  	95.8521
2422.58  	96.0092
2425.45  	95.997
2428.32  	96.0254
2431.2  	96.0889
2434.07  	96.1945
2436.94  	96.1267
2439.82  	96.1231
2442.69  	96.032
2445.57  	96.1131
2448.44  	96.1165
2451.31  	96.1894
2454.19  	96.1112
2457.06  	96.1405
2459.93  	96.05
2462.81  	96.063
2465.68  	96.0479
2468.56  	96.1426
2471.43  	96.0792
2474.3  	96.1404
2477.18  	96.1088
2480.05  	96.1559
2482.93  	96.1193
2485.8  	96.0915
2488.67  	96.1118
2491.55  	96.0872
2494.42  	96.0698
2497.29  	96.1313
2500.17  	96.0363
2503.04  	96.0235
2505.92  	96.081
2508.79  	96.2598
2511.66  	96.1148
2514.54  	96.0228
2517.41  	96.0876
2520.28  	96.0677
2523.16  	96.0257
2526.03  	96.0478
2528.91  	96.0995
2531.78  	96.0217
2534.65  	96.0985
2537.53  	96.0241
2540.4  	95.9793
2543.27  	95.99
2546.15  	96.0427
2549.02  	95.9671
2551.9  	95.9306
2554.77  	95.8901
2557.64  	95.9892
2560.52  	95.8673
2563.39  	95.9288
2566.26  	95.753
2569.14  	95.8516
2572.01  	95.7201
2574.89  	95.7743
2577.76  	95.6793
2580.63  	95.6797
2583.51  	95.7437
2586.38  	95.5782
2589.25  	95.5667
2592.13  	95.6301
2595  	95.5085
2597.88  	95.5572
2600.75  	95.4907
2603.62  	95.5194
2606.5  	95.4034
2609.37  	95.4132
2612.24  	95.4238
2615.12  	95.4391
2617.99  	95.3462
2620.87  	95.3201
2623.74  	95.3502
2626.61  	95.3198
2629.49  	95.2813
2632.36  	95.3672
2635.23  	95.3008
2638.11  	95.2808
2640.98  	95.3134
2643.86  	95.3489
2646.73  	95.3157
2649.6  	95.2508
2652.48  	95.2634
2655.35  	95.2882
2658.22  	95.2921
2661.1  	95.2379
2663.97  	95.2825
2666.85  	95.2378
2669.72  	95.2285
2672.59  	95.2218
2675.47  	95.209
2678.34  	95.1913
2681.21  	95.2285
2684.09  	95.1679
2686.96  	95.1893
2689.84  	95.0994
2692.71  	95.1592
2695.58  	95.0885
2698.46  	95.0876
2701.33  	95.1426
2704.2  	95.0846
2707.08  	95.0808
2709.95  	95.0019
2712.83  	94.9738
2715.7  	94.9465
2718.57  	94.9177
2721.45  	94.8828
2724.32  	94.8722
2727.19  	94.8276
2730.07  	94.7868
2732.94  	94.7623
2735.82  	94.7222
2738.69  	94.6993
2741.56  	94.6755
2744.44  	94.5881
2747.31  	94.5922
2750.18  	94.5051
2753.06  	94.4865
2755.93  	94.4094
2758.81  	94.3756
2761.68  	94.3401
2764.55  	94.3328
2767.43  	94.281
2770.3  	94.2045
2773.17  	94.1621
2776.05  	94.107
2778.92  	94.036
2781.8  	94.0113
2784.67  	93.9729
2787.54  	93.9235
2790.42  	93.8327
2793.29  	93.7836
2796.16  	93.6999
2799.04  	93.7124
2801.91  	93.6115
2804.79  	93.5707
2807.66  	93.5037
2810.53  	93.4116
2813.41  	93.3531
2816.28  	93.3181
2819.15  	93.2809
2822.03  	93.1953
2824.9  	93.1233
2827.78  	93.0075
2830.65  	92.9742
2833.52  	92.8575
2836.4  	92.7945
2839.27  	92.7367
2842.14  	92.6795
2845.02  	92.5914
2847.89  	92.5116
2850.77  	92.4079
2853.64  	92.332
2856.51  	92.3151
2859.39  	92.1908
2862.26  	92.1239
2865.13  	92.0133
2868.01  	91.9816
2870.88  	91.9124
2873.76  	91.8077
2876.63  	91.7476
2879.5  	91.6616
2882.38  	91.5291
2885.25  	91.4519
2888.12  	91.3219
2891  	91.2808
2893.87  	91.1199
2896.75  	91.0845
2899.62  	91.0156
2902.49  	90.8773
2905.37  	90.7632
2908.24  	90.668
2911.11  	90.5705
2913.99  	90.4532
2916.86  	90.2931
2919.74  	90.1627
2922.61  	90.0629
2925.48  	89.9377
2928.36  	89.7395
2931.23  	89.6716
2934.1  	89.5494
2936.98  	89.3813
2939.85  	89.2684
2942.73  	89.1185
2945.6  	88.9976
2948.47  	88.8397
2951.35  	88.6849
2954.22  	88.5149
2957.09  	88.3549
2959.97  	88.1863
2962.84  	88.0268
2965.72  	87.8694
2968.59  	87.684
2971.46  	87.5168
2974.34  	87.3693
2977.21  	87.1159
2980.08  	86.9101
2982.96  	86.7772
2985.83  	86.5428
2988.71  	86.3689
2991.58  	86.1905
2994.45  	85.939
2997.33  	85.6896
3000.2  	85.5481
3003.07  	85.2823
3005.95  	85.1016
3008.82  	84.811
3011.7  	84.5178
3014.57  	84.3125
3017.44  	84.1156
3020.32  	83.8557
3023.19  	83.6162
3026.06  	83.3426
3028.94  	83.0748
3031.81  	82.7993
3034.69  	82.4923
3037.56  	82.2391
3040.43  	82.0069
3043.31  	81.7337
3046.18  	81.4837
3049.05  	81.1578
3051.93  	80.8065
3054.8  	80.5441
3057.68  	80.2508
3060.55  	79.9828
3063.42  	79.7314
3066.3  	79.3012
3069.17  	79.055
3072.04  	78.7022
3074.92  	78.372
3077.79  	78.0858
3080.67  	77.8839
3083.54  	77.4218
3086.41  	77.0231
3089.29  	76.7499
3092.16  	76.3731
3095.04  	76.0527
3097.91  	75.6572
3100.78  	75.2842
3103.66  	74.9782
3106.53  	74.6462
3109.4  	74.201
3112.28  	73.8113
3115.15  	73.4772
3118.03  	73.0731
3120.9  	72.6662
3123.77  	72.2137
3126.65  	71.8782
3129.52  	71.4586
3132.39  	70.974
3135.27  	70.508
3138.14  	70.1523
3141.02  	69.7363
3143.89  	69.4185
3146.76  	68.9194
3149.64  	68.4841
3152.51  	67.9905
3155.38  	67.6042
3158.26  	67.1077
3161.13  	66.7638
3164.01  	66.3683
3166.88  	65.8337
3169.75  	65.4763
3172.63  	65.0473
3175.5  	64.655
3178.37  	64.1353
3181.25  	63.7787
3184.12  	63.3936
3187  	62.9656
3189.87  	62.4884
3192.74  	62.1386
3195.62  	61.9132
3198.49  	61.429
3201.36  	61.0715
3204.24  	60.7806
3207.11  	60.4909
3209.99  	60.2054
3212.86  	59.8139
3215.73  	59.5836
3218.61  	59.3819
3221.48  	59.1358
3224.35  	58.7526
3227.23  	58.6893
3230.1  	58.3909
3232.98  	58.1256
3235.85  	57.9213
3238.72  	57.9282
3241.6  	57.6975
3244.47  	57.5396
3247.34  	57.4063
3250.22  	57.2892
3253.09  	57.2515
3255.97  	57.0614
3258.84  	56.9662
3261.71  	56.8988
3264.59  	56.7419
3267.46  	56.7289
3270.33  	56.5935
3273.21  	56.5804
3276.08  	56.5347
3278.96  	56.4754
3281.83  	56.4414
3284.7  	56.4231
3287.58  	56.3323
3290.45  	56.2559
3293.32  	56.2201
3296.2  	56.1264
3299.07  	56.151
3301.95  	55.9224
3304.82  	56.0631
3307.69  	55.9882
3310.57  	55.8256
3313.44  	55.776
3316.31  	55.8342
3319.19  	55.8252
3322.06  	55.7185
3324.94  	55.6102
3327.81  	55.5029
3330.68  	55.5388
3333.56  	55.49
3336.43  	55.452
3339.3  	55.451
3342.18  	55.5453
3345.05  	55.5373
3347.93  	55.4441
3350.8  	55.3811
3353.67  	55.4103
3356.55  	55.3593
3359.42  	55.4033
3362.29  	55.3955
3365.17  	55.3655
3368.04  	55.47
3370.92  	55.4293
3373.79  	55.7132
3376.66  	55.6696
3379.54  	55.863
3382.41  	55.8549
3385.28  	56.0678
3388.16  	56.2275
3391.03  	56.2383
3393.91  	56.4776
3396.78  	56.5645
3399.65  	56.682
3402.53  	56.8843
3405.4  	57.2075
3408.27  	57.3874
3411.15  	57.7183
3414.02  	57.8743
3416.9  	58.149
3419.77  	58.3902
3422.64  	58.802
3425.52  	59.0481
3428.39  	59.3086
3431.26  	59.558
3434.14  	59.8714
3437.01  	60.1077
3439.89  	60.4588
3442.76  	60.9357
3445.63  	61.2086
3448.51  	61.5616
3451.38  	62.0559
3454.25  	62.4326
3457.13  	62.6778
3460  	63.0466
3462.88  	63.4176
3465.75  	63.846
3468.62  	64.2101
3471.5  	64.4394
3474.37  	64.9671
3477.24  	65.1629
3480.12  	65.6688
3482.99  	65.9572
3485.87  	66.3272
3488.74  	66.8768
3491.61  	67.1203
3494.49  	67.495
3497.36  	68.0378
3500.23  	68.3179
3503.11  	68.618
3505.98  	69.2022
3508.86  	69.4374
3511.73  	69.9837
3514.6  	70.331
3517.48  	70.8564
3520.35  	71.2565
3523.22  	71.7082
3526.1  	71.9593
3528.97  	72.4612
3531.85  	72.919
3534.72  	73.2458
3537.59  	73.6955
3540.47  	74.1903
3543.34  	74.5774
3546.21  	74.9243
3549.09  	75.2667
3551.96  	75.6502
3554.84  	76.1549
3557.71  	76.5367
3560.58  	76.9208
3563.46  	77.4036
3566.33  	77.6601
3569.2  	78.2757
3572.08  	78.5822
3574.95  	78.885
3577.83  	79.3859
3580.7  	79.7907
3583.57  	80.2269
3586.45  	80.4063
3589.32  	80.8566
3592.19  	81.3617
3595.07  	81.4934
3597.94  	81.8899
3600.82  	82.4352
3603.69  	82.8387
3606.56  	82.9353
3609.44  	83.4506
3612.31  	83.8271
3615.18  	83.99
3618.06  	84.2053
3620.93  	84.9045
3623.81  	85.2487
3626.68  	85.3306
3629.55  	85.6925
3632.43  	86.2805
3635.3  	86.5961
3638.17  	86.9864
3641.05  	87.7028
3643.92  	88.0414
3646.8  	88.2843
3649.67  	88.7119
3652.54  	89.347
3655.42  	89.8116
3658.29  	90.2322
3661.16  	91.0248
3664.04  	91.4324
3666.91  	91.7684
3669.79  	92.1659
3672.66  	92.8843
3675.53  	93.075
3678.41  	93.5861
3681.28  	94.0461
3684.15  	94.43
3687.03  	94.5963
3689.9  	94.8129
3692.78  	95.0229
3695.65  	95.215
3698.52  	95.3776
3701.4  	95.6158
3704.27  	95.7289
3707.15  	96.0509
3710.02  	96.0863
3712.89  	95.9374
3715.77  	96.3362
3718.64  	96.2592
3721.51  	96.1995
3724.39  	96.3636
3727.26  	96.3414
3730.14  	96.3923
3733.01  	96.7947
3735.88  	96.4111
3738.76  	96.5782
3741.63  	96.7281
3744.5  	96.7956
3747.38  	96.6948
3750.25  	96.9341
3753.13  	96.915
3756  	97.0399
3758.87  	97.0649
3761.75  	97.0836
3764.62  	97.2086
3767.49  	97.2997
3770.37  	97.3036
3773.24  	97.4338
3776.12  	97.3979
3778.99  	97.2422
3781.86  	97.364
3784.74  	97.5106
3787.61  	97.5387
3790.48  	97.515
3793.36  	97.5528
3796.23  	97.4601
3799.11  	97.4169
3801.98  	97.5375
3804.85  	97.7237
3807.73  	97.6116
3810.6  	97.6834
3813.47  	97.5755
3816.35  	97.7657
3819.22  	97.6333
3822.1  	97.6646
3824.97  	97.7229
3827.84  	97.7172
3830.72  	97.6262
3833.59  	97.5318
3836.46  	97.8433
3839.34  	97.7076
3842.21  	97.7087
3845.09  	97.7444
3847.96  	97.6736
3850.83  	97.4937
3853.71  	97.67
3856.58  	97.6088
3859.45  	97.7719
3862.33  	97.5333
3865.2  	97.6182
3868.08  	97.5614
3870.95  	97.5225
3873.82  	97.7424
3876.7  	97.8565
3879.57  	97.6485
3882.44  	97.3712
3885.32  	97.6056
3888.19  	97.5806
3891.07  	97.5388
3893.94  	97.684
3896.81  	97.7636
3899.69  	97.4428
3902.56  	97.3517
3905.43  	97.5856
3908.31  	97.6352
3911.18  	97.6351
3914.06  	97.7404
3916.93  	97.6134
3919.8  	97.5123
3922.68  	97.7197
3925.55  	97.7
3928.42  	97.6712
3931.3  	97.6839
3934.17  	97.6322
3937.05  	97.7373
3939.92  	97.7198
3942.79  	97.6822
3945.67  	97.6963
3948.54  	97.672
3951.41  	97.6534
3954.29  	97.6281
3957.16  	97.7014
3960.04  	97.6861
3962.91  	97.668
3965.78  	97.7622
3968.66  	97.6878
3971.53  	97.7485
3974.4  	97.7696
3977.28  	97.8436
3980.15  	97.8066
3983.03  	97.7625
3985.9  	97.6753
3988.77  	97.7602
3991.65  	97.7473
3994.52  	97.7658
3997.39  	97.8128
4000.27  	97.7654